_id,block,answer__001,answer__002,answer__003,answer__004,answer__005,answer__006,answer__007,answer__008,answer__009,answer__010,answer__011,answer__012,correct,scaffold,question,scenario,graph,condition,session,experiment,subject,time_elapsed,trial_index,rt
"ObjectId(""590a18edbe56e669301b3e33"")",linear_scaffolded,C,D,L,,,,,,,,,,1,none,start,longmire,linear,0,expert,experiment,PPACF,259341,5,43060
"ObjectId(""590a18edbe56e669301b3e34"")",linear_scaffolded,H,J,K,L,O,,,,,,,,0,none,end,longmire,linear,0,expert,experiment,PPACF,393841,6,133235
"ObjectId(""590a18edbe56e669301b3e35"")",linear_scaffolded,G,O,,,,,,,,,,,1,none,duration,longmire,linear,0,expert,experiment,PPACF,431263,7,36068
"ObjectId(""590a18edbe56e669301b3e36"")",linear_scaffolded,1,,,,,,,,,,,,1,none,midpoint,longmire,linear,0,expert,experiment,PPACF,457486,8,24954
"ObjectId(""590a18edbe56e669301b3e37"")",linear_scaffolded,A,,,,,,,,,,,,1,none,start+overlap,longmire,linear,0,expert,experiment,PPACF,496311,9,37551
"ObjectId(""590a18edbe56e669301b3e38"")",linear_testing,6,8,,,,,,,,,,,1,none,starts,longmire,linear,0,expert,experiment,PPACF,558902,10,61322
"ObjectId(""590a18edbe56e669301b3e39"")",linear_testing,E,K,L,,,,,,,,,,0,none,during+overlap,longmire,linear,0,expert,experiment,PPACF,672639,11,112374
"ObjectId(""590a18edbe56e669301b3e3a"")",linear_testing,A,B,C,D,F,I,,,,,,,1,none,before+overlap,longmire,linear,0,expert,experiment,PPACF,766828,12,92826
"ObjectId(""590a18edbe56e669301b3e3b"")",linear_testing,O,,,,,,,,,,,,1,none,meets,longmire,linear,0,expert,experiment,PPACF,802080,13,33908
"ObjectId(""590a18edbe56e669301b3e3c"")",linear_testing,A,M,N,,,,,,,,,,1,none,overlap+overlap,longmire,linear,0,expert,experiment,PPACF,874067,14,70731
"ObjectId(""590a18edbe56e669301b3e3d"")",linear_testing,A,B,D,F,,,,,,,,,1,none,start+duration,longmire,linear,0,expert,experiment,PPACF,964721,15,89288
"ObjectId(""590a18edbe56e669301b3e3e"")",linear_testing,C,,,,,,,,,,,,1,none,starts+finishes,longmire,linear,0,expert,experiment,PPACF,982597,16,16222
"ObjectId(""590a18edbe56e669301b3e3f"")",linear_testing,G,O,,,,,,,,,,,1,none,contain+duration,longmire,linear,0,expert,experiment,PPACF,1018540,17,34684
"ObjectId(""590a18edbe56e669301b3e40"")",linear_testing,4,5,,,,,,,,,,,1,none,finishes,longmire,linear,0,expert,experiment,PPACF,1087610,18,67788
"ObjectId(""590a18edbe56e669301b3e41"")",linear_testing,B,D,F,G,,,,,,,,,0,none,during,longmire,linear,0,expert,experiment,PPACF,1250722,19,161774
"ObjectId(""590a18edbe56e669301b3e42"")",triangular_scaffolded,C,H,,,,,,,,,,,0,none,start,axis,triangular,0,expert,experiment,PPACF,1329491,21,41757
"ObjectId(""590a18edbe56e669301b3e43"")",triangular_scaffolded,4,,,,,,,,,,,,1,none,end,axis,triangular,0,expert,experiment,PPACF,1343413,22,12553
"ObjectId(""590a18edbe56e669301b3e44"")",triangular_scaffolded,A,C,E,F,G,K,L,,,,,,0,none,duration,axis,triangular,0,expert,experiment,PPACF,1424600,23,79911
"ObjectId(""590a18edbe56e669301b3e45"")",triangular_scaffolded,8,,,,,,,,,,,,1,none,midpoint,axis,triangular,0,expert,experiment,PPACF,1520497,24,94518
"ObjectId(""590a18edbe56e669301b3e46"")",triangular_scaffolded,12,,,,,,,,,,,,0,none,start+overlap,axis,triangular,0,expert,experiment,PPACF,1564355,25,42514
"ObjectId(""590a18edbe56e669301b3e47"")",triangular_testing,A,,,,,,,,,,,,1,none,during+overlap,axis,triangular,0,expert,experiment,PPACF,1630803,26,65053
"ObjectId(""590a18edbe56e669301b3e48"")",triangular_testing,B,J,,,,,,,,,,,0,none,overlap+overlap,axis,triangular,0,expert,experiment,PPACF,1659631,27,27470
"ObjectId(""590a18edbe56e669301b3e49"")",triangular_testing,6,,,,,,,,,,,,1,none,starts,axis,triangular,0,expert,experiment,PPACF,1687411,28,26508
"ObjectId(""590a18edbe56e669301b3e4a"")",triangular_testing,9,,,,,,,,,,,,1,none,start+duration,axis,triangular,0,expert,experiment,PPACF,1717124,29,28436
"ObjectId(""590a18edbe56e669301b3e4b"")",triangular_testing,C,G,,,,,,,,,,,0,none,finishes,axis,triangular,0,expert,experiment,PPACF,1734525,30,16128
"ObjectId(""590a18edbe56e669301b3e4c"")",triangular_testing,G,,,,,,,,,,,,1,none,starts+finishes,axis,triangular,0,expert,experiment,PPACF,1751857,31,16058
"ObjectId(""590a18edbe56e669301b3e4d"")",triangular_testing,D,M,N,,,,,,,,,,0,none,contain+duration,axis,triangular,0,expert,experiment,PPACF,1821002,32,67868
"ObjectId(""590a18edbe56e669301b3e4e"")",triangular_testing,J,M,O,,,,,,,,,,0,none,meets,axis,triangular,0,expert,experiment,PPACF,1894164,33,71806
"ObjectId(""590a18edbe56e669301b3e4f"")",triangular_testing,C,F,M,,,,,,,,,,0,none,during,axis,triangular,0,expert,experiment,PPACF,1921785,34,26271
"ObjectId(""590a18edbe56e669301b3e50"")",triangular_testing,F,G,J,M,O,,,,,,,,0,none,before+overlap,axis,triangular,0,expert,experiment,PPACF,2002516,35,79400
"ObjectId(""590a18edbe56e669301b3e51"")",instructions_drawing,,,,,,,,,,,,,,,,,,0,expert,experiment,PPACF,2088686,37,77149
"ObjectId(""590a18edbe56e669301b3e52"")",drawingTest,,,,,,,,,,,,,0,none,duration,jones,none,0,expert,experiment,PPACF,2125029,38,34984
"ObjectId(""590a18edbe56e669301b3e53"")",drawingTest,Chris,3-4pm,,,,,,,,,,,1,none,overlap,jones,none,0,expert,experiment,PPACF,2215335,39,89041
"ObjectId(""590a18edbe56e669301b3e54"")",linear_scaffolded,H,O,,,,,,,,,,,1,none,start,axis,linear,0,expert,experiment,Y07OR,84911,5,21187
"ObjectId(""590a18edbe56e669301b3e55"")",linear_scaffolded,4,,,,,,,,,,,,1,none,end,axis,linear,0,expert,experiment,Y07OR,96413,6,10215
"ObjectId(""590a18edbe56e669301b3e56"")",linear_scaffolded,A,C,E,F,G,H,I,K,L,,,,1,none,duration,axis,linear,0,expert,experiment,Y07OR,130679,7,32981
"ObjectId(""590a18edbe56e669301b3e57"")",linear_scaffolded,8,,,,,,,,,,,,1,none,midpoint,axis,linear,0,expert,experiment,Y07OR,161993,8,30005
"ObjectId(""590a18edbe56e669301b3e58"")",linear_scaffolded,8,,,,,,,,,,,,0,none,start+overlap,axis,linear,0,expert,experiment,Y07OR,188949,9,25680
"ObjectId(""590a18edbe56e669301b3e59"")",linear_testing,C,F,,,,,,,,,,,0,none,overlap+overlap,axis,linear,0,expert,experiment,Y07OR,199216,10,8984
"ObjectId(""590a18edbe56e669301b3e5a"")",linear_testing,G,,,,,,,,,,,,1,none,starts+finishes,axis,linear,0,expert,experiment,Y07OR,219907,11,19404
"ObjectId(""590a18edbe56e669301b3e5b"")",linear_testing,D,N,O,,,,,,,,,,0,none,contain+duration,axis,linear,0,expert,experiment,Y07OR,241353,12,20112
"ObjectId(""590a18edbe56e669301b3e5c"")",linear_testing,4,,,,,,,,,,,,0,none,start+duration,axis,linear,0,expert,experiment,Y07OR,268132,13,25491
"ObjectId(""590a18edbe56e669301b3e5d"")",linear_testing,F,O,,,,,,,,,,,0,none,during,axis,linear,0,expert,experiment,Y07OR,287494,14,18075
"ObjectId(""590a18edbe56e669301b3e5e"")",linear_testing,5,,,,,,,,,,,,0,none,starts,axis,linear,0,expert,experiment,Y07OR,332025,15,43212
"ObjectId(""590a18edbe56e669301b3e5f"")",linear_testing,A,,,,,,,,,,,,1,none,during+overlap,axis,linear,0,expert,experiment,Y07OR,363003,16,29695
"ObjectId(""590a18edbe56e669301b3e60"")",linear_testing,G,,,,,,,,,,,,1,none,meets,axis,linear,0,expert,experiment,Y07OR,386219,17,21929
"ObjectId(""590a18edbe56e669301b3e61"")",linear_testing,F,G,O,,,,,,,,,,0,none,before+overlap,axis,linear,0,expert,experiment,Y07OR,420528,18,33024
"ObjectId(""590a18edbe56e669301b3e62"")",linear_testing,G,O,,,,,,,,,,,1,none,finishes,axis,linear,0,expert,experiment,Y07OR,453000,19,31188
"ObjectId(""590a18edbe56e669301b3e63"")",triangular_scaffolded,C,D,L,,,,,,,,,,1,none,start,longmire,triangular,0,expert,experiment,Y07OR,477285,21,13051
"ObjectId(""590a18edbe56e669301b3e64"")",triangular_scaffolded,H,J,K,L,M,N,O,,,,,,1,none,end,longmire,triangular,0,expert,experiment,Y07OR,516298,22,37728
"ObjectId(""590a18edbe56e669301b3e65"")",triangular_scaffolded,G,O,,,,,,,,,,,1,none,duration,longmire,triangular,0,expert,experiment,Y07OR,524045,23,6438
"ObjectId(""590a18edbe56e669301b3e66"")",triangular_scaffolded,1,,,,,,,,,,,,1,none,midpoint,longmire,triangular,0,expert,experiment,Y07OR,545004,24,19610
"ObjectId(""590a18edbe56e669301b3e67"")",triangular_scaffolded,A,,,,,,,,,,,,1,none,start+overlap,longmire,triangular,0,expert,experiment,Y07OR,572044,25,25752
"ObjectId(""590a18edbe56e669301b3e68"")",triangular_testing,D,N,,,,,,,,,,,0,none,contain+duration,longmire,triangular,0,expert,experiment,Y07OR,651089,26,77703
"ObjectId(""590a18edbe56e669301b3e69"")",triangular_testing,O,,,,,,,,,,,,1,none,meets,longmire,triangular,0,expert,experiment,Y07OR,673210,27,20751
"ObjectId(""590a18edbe56e669301b3e6a"")",triangular_testing,A,M,N,,,,,,,,,,1,none,overlap+overlap,longmire,triangular,0,expert,experiment,Y07OR,701553,28,27051
"ObjectId(""590a18edbe56e669301b3e6b"")",triangular_testing,A,B,C,D,F,I,,,,,,,1,none,before+overlap,longmire,triangular,0,expert,experiment,Y07OR,746285,29,43442
"ObjectId(""590a18edbe56e669301b3e6c"")",triangular_testing,M,N,,,,,,,,,,,0,none,during,longmire,triangular,0,expert,experiment,Y07OR,794588,30,46997
"ObjectId(""590a18edbe56e669301b3e6d"")",triangular_testing,K,L,,,,,,,,,,,1,none,during+overlap,longmire,triangular,0,expert,experiment,Y07OR,868704,31,72819
"ObjectId(""590a18edbe56e669301b3e6e"")",triangular_testing,C,,,,,,,,,,,,1,none,starts+finishes,longmire,triangular,0,expert,experiment,Y07OR,881223,32,11149
"ObjectId(""590a18edbe56e669301b3e6f"")",triangular_testing,4,5,,,,,,,,,,,1,none,finishes,longmire,triangular,0,expert,experiment,Y07OR,904920,33,22409
"ObjectId(""590a18edbe56e669301b3e70"")",triangular_testing,6,8,,,,,,,,,,,1,none,starts,longmire,triangular,0,expert,experiment,Y07OR,924475,34,18258
"ObjectId(""590a18edbe56e669301b3e71"")",triangular_testing,A,B,D,,,,,,,,,,0,none,start+duration,longmire,triangular,0,expert,experiment,Y07OR,954723,35,28952
"ObjectId(""590a18edbe56e669301b3e72"")",instructions_drawing,,,,,,,,,,,,,,,,,,0,expert,experiment,Y07OR,1545706,37,525944
"ObjectId(""590a18edbe56e669301b3e73"")",drawingTest,C1,,,,,,,,,,,,1,none,duration,jones,none,0,expert,experiment,Y07OR,1558659,38,11575
"ObjectId(""590a18edbe56e669301b3e74"")",drawingTest,Chris,3-4pm,,,,,,,,,,,1,none,overlap,jones,none,0,expert,experiment,Y07OR,1629286,39,69335
"ObjectId(""590a18edbe56e669301b3e75"")",linear_scaffolded,H,O,,,,,,,,,,,1,none,start,axis,linear,0,expert,experiment,8XZ5Z,96390,5,24777
"ObjectId(""590a18edbe56e669301b3e76"")",linear_scaffolded,4,,,,,,,,,,,,1,none,end,axis,linear,0,expert,experiment,8XZ5Z,111763,6,14106
"ObjectId(""590a18edbe56e669301b3e77"")",linear_scaffolded,A,C,E,F,G,H,I,K,L,,,,1,none,duration,axis,linear,0,expert,experiment,8XZ5Z,186537,7,73506
"ObjectId(""590a18edbe56e669301b3e78"")",linear_scaffolded,8,,,,,,,,,,,,1,none,midpoint,axis,linear,0,expert,experiment,8XZ5Z,255507,8,67620
"ObjectId(""590a18edbe56e669301b3e79"")",linear_scaffolded,7,,,,,,,,,,,,1,none,start+overlap,axis,linear,0,expert,experiment,8XZ5Z,284982,9,28115
"ObjectId(""590a18edbe56e669301b3e7a"")",linear_testing,G,O,,,,,,,,,,,1,none,finishes,axis,linear,0,expert,experiment,8XZ5Z,307646,10,21378
"ObjectId(""590a18edbe56e669301b3e7b"")",linear_testing,6,,,,,,,,,,,,1,none,starts,axis,linear,0,expert,experiment,8XZ5Z,377213,11,68282
"ObjectId(""590a18edbe56e669301b3e7c"")",linear_testing,9,,,,,,,,,,,,1,none,start+duration,axis,linear,0,expert,experiment,8XZ5Z,399400,12,20831
"ObjectId(""590a18edbe56e669301b3e7d"")",linear_testing,A,,,,,,,,,,,,1,none,during+overlap,axis,linear,0,expert,experiment,8XZ5Z,463064,13,62384
"ObjectId(""590a18edbe56e669301b3e7e"")",linear_testing,G,,,,,,,,,,,,1,none,starts+finishes,axis,linear,0,expert,experiment,8XZ5Z,484558,14,20141
"ObjectId(""590a18edbe56e669301b3e7f"")",linear_testing,G,,,,,,,,,,,,1,none,meets,axis,linear,0,expert,experiment,8XZ5Z,583511,15,97657
"ObjectId(""590a18edbe56e669301b3e80"")",linear_testing,F,M,O,,,,,,,,,,1,none,during,axis,linear,0,expert,experiment,8XZ5Z,640196,16,55307
"ObjectId(""590a18edbe56e669301b3e81"")",linear_testing,F,G,M,O,,,,,,,,,1,none,before+overlap,axis,linear,0,expert,experiment,8XZ5Z,717682,17,76208
"ObjectId(""590a18edbe56e669301b3e82"")",linear_testing,D,M,N,O,,,,,,,,,1,none,contain+duration,axis,linear,0,expert,experiment,8XZ5Z,790027,18,70935
"ObjectId(""590a18edbe56e669301b3e83"")",linear_testing,A,B,C,E,J,,,,,,,,1,none,overlap+overlap,axis,linear,0,expert,experiment,8XZ5Z,844436,19,53045
"ObjectId(""590a18edbe56e669301b3e84"")",triangular_scaffolded,C,D,L,,,,,,,,,,1,none,start,longmire,triangular,0,expert,experiment,8XZ5Z,877123,21,24401
"ObjectId(""590a18edbe56e669301b3e85"")",triangular_scaffolded,H,J,K,L,M,N,O,,,,,,1,none,end,longmire,triangular,0,expert,experiment,8XZ5Z,930679,22,52265
"ObjectId(""590a18edbe56e669301b3e86"")",triangular_scaffolded,G,O,,,,,,,,,,,1,none,duration,longmire,triangular,0,expert,experiment,8XZ5Z,945489,23,13524
"ObjectId(""590a18edbe56e669301b3e87"")",triangular_scaffolded,1,,,,,,,,,,,,1,none,midpoint,longmire,triangular,0,expert,experiment,8XZ5Z,972873,24,26065
"ObjectId(""590a18edbe56e669301b3e88"")",triangular_scaffolded,A,,,,,,,,,,,,1,none,start+overlap,longmire,triangular,0,expert,experiment,8XZ5Z,1010775,25,36604
"ObjectId(""590a18edbe56e669301b3e89"")",triangular_testing,B,C,D,F,G,,,,,,,,1,none,during,longmire,triangular,0,expert,experiment,8XZ5Z,1127085,26,115023
"ObjectId(""590a18edbe56e669301b3e8a"")",triangular_testing,A,M,N,,,,,,,,,,1,none,overlap+overlap,longmire,triangular,0,expert,experiment,8XZ5Z,1197345,27,68894
"ObjectId(""590a18edbe56e669301b3e8b"")",triangular_testing,K,L,,,,,,,,,,,1,none,during+overlap,longmire,triangular,0,expert,experiment,8XZ5Z,1270055,28,71348
"ObjectId(""590a18edbe56e669301b3e8c"")",triangular_testing,C,,,,,,,,,,,,1,none,starts+finishes,longmire,triangular,0,expert,experiment,8XZ5Z,1289976,29,18553
"ObjectId(""590a18edbe56e669301b3e8d"")",triangular_testing,6,8,,,,,,,,,,,1,none,starts,longmire,triangular,0,expert,experiment,8XZ5Z,1344584,30,53015
"ObjectId(""590a18edbe56e669301b3e8e"")",triangular_testing,O,,,,,,,,,,,,1,none,meets,longmire,triangular,0,expert,experiment,8XZ5Z,1369437,31,23512
"ObjectId(""590a18edbe56e669301b3e8f"")",triangular_testing,A,B,D,F,,,,,,,,,1,none,start+duration,longmire,triangular,0,expert,experiment,8XZ5Z,1426937,32,56212
"ObjectId(""590a18edbe56e669301b3e90"")",triangular_testing,G,O,,,,,,,,,,,1,none,contain+duration,longmire,triangular,0,expert,experiment,8XZ5Z,1448871,33,20646
"ObjectId(""590a18edbe56e669301b3e91"")",triangular_testing,4,5,,,,,,,,,,,1,none,finishes,longmire,triangular,0,expert,experiment,8XZ5Z,1481646,34,31484
"ObjectId(""590a18edbe56e669301b3e92"")",triangular_testing,A,B,C,D,F,I,,,,,,,1,none,before+overlap,longmire,triangular,0,expert,experiment,8XZ5Z,1603364,35,120431
"ObjectId(""590a18edbe56e669301b3e93"")",instructions_drawing,,,,,,,,,,,,,,,,,,0,expert,experiment,8XZ5Z,2114572,37,506847
"ObjectId(""590a18edbe56e669301b3e94"")",drawingTest,C1,,,,,,,,,,,,1,none,duration,jones,none,0,expert,experiment,8XZ5Z,2187926,38,72009
"ObjectId(""590a18edbe56e669301b3e95"")",drawingTest,Chris,3-4pm,,,,,,,,,,,1,none,overlap,jones,none,0,expert,experiment,8XZ5Z,2241310,39,52020
"ObjectId(""590a18edbe56e669301b3e96"")",linear_scaffolded,C,H,,,,,,,,,,,0,none,start,axis,linear,0,expert,experiment,KUPVH,403902,5,15449
"ObjectId(""590a18edbe56e669301b3e97"")",linear_scaffolded,4,,,,,,,,,,,,1,none,end,axis,linear,0,expert,experiment,KUPVH,414591,6,9393
"ObjectId(""590a18edbe56e669301b3e98"")",linear_scaffolded,A,C,E,F,G,H,I,K,L,,,,1,none,duration,axis,linear,0,expert,experiment,KUPVH,500176,7,84299
"ObjectId(""590a18edbe56e669301b3e99"")",linear_scaffolded,8,,,,,,,,,,,,1,none,midpoint,axis,linear,0,expert,experiment,KUPVH,567718,8,66167
"ObjectId(""590a18edbe56e669301b3e9a"")",linear_scaffolded,7,,,,,,,,,,,,1,none,start+overlap,axis,linear,0,expert,experiment,KUPVH,610914,9,41808
"ObjectId(""590a18edbe56e669301b3e9b"")",linear_testing,G,,,,,,,,,,,,1,none,starts+finishes,axis,linear,0,expert,experiment,KUPVH,661936,10,49690
"ObjectId(""590a18edbe56e669301b3e9c"")",linear_testing,C,D,M,N,,,,,,,,,0,none,contain+duration,axis,linear,0,expert,experiment,KUPVH,746766,11,83545
"ObjectId(""590a18edbe56e669301b3e9d"")",linear_testing,G,O,,,,,,,,,,,1,none,finishes,axis,linear,0,expert,experiment,KUPVH,765360,12,17213
"ObjectId(""590a18edbe56e669301b3e9e"")",linear_testing,A,B,C,E,J,,,,,,,,1,none,overlap+overlap,axis,linear,0,expert,experiment,KUPVH,830526,13,63889
"ObjectId(""590a18edbe56e669301b3e9f"")",linear_testing,F,G,O,,,,,,,,,,0,none,meets,axis,linear,0,expert,experiment,KUPVH,935814,14,103920
"ObjectId(""590a18edbe56e669301b3ea0"")",linear_testing,9,,,,,,,,,,,,1,none,start+duration,axis,linear,0,expert,experiment,KUPVH,972358,15,35179
"ObjectId(""590a18edbe56e669301b3ea1"")",linear_testing,A,,,,,,,,,,,,1,none,during+overlap,axis,linear,0,expert,experiment,KUPVH,1020583,16,46941
"ObjectId(""590a18edbe56e669301b3ea2"")",linear_testing,6,,,,,,,,,,,,1,none,starts,axis,linear,0,expert,experiment,KUPVH,1074440,17,52577
"ObjectId(""590a18edbe56e669301b3ea3"")",linear_testing,A,,,,,,,,,,,,0,none,during,axis,linear,0,expert,experiment,KUPVH,1114265,18,38506
"ObjectId(""590a18edbe56e669301b3ea4"")",linear_testing,F,G,O,,,,,,,,,,0,none,before+overlap,axis,linear,0,expert,experiment,KUPVH,1178952,19,63412
"ObjectId(""590a18edbe56e669301b3ea5"")",triangular_scaffolded,C,D,L,,,,,,,,,,1,none,start,longmire,triangular,0,expert,experiment,KUPVH,1222587,21,25452
"ObjectId(""590a18edbe56e669301b3ea6"")",triangular_scaffolded,H,J,K,L,M,N,O,,,,,,1,none,end,longmire,triangular,0,expert,experiment,KUPVH,1259003,22,35138
"ObjectId(""590a18edbe56e669301b3ea7"")",triangular_scaffolded,G,O,,,,,,,,,,,1,none,duration,longmire,triangular,0,expert,experiment,KUPVH,1272966,23,12675
"ObjectId(""590a18edbe56e669301b3ea8"")",triangular_scaffolded,1,,,,,,,,,,,,1,none,midpoint,longmire,triangular,0,expert,experiment,KUPVH,1300001,24,25746
"ObjectId(""590a18edbe56e669301b3ea9"")",triangular_scaffolded,A,,,,,,,,,,,,1,none,start+overlap,longmire,triangular,0,expert,experiment,KUPVH,1331983,25,30688
"ObjectId(""590a18edbe56e669301b3eaa"")",triangular_testing,B,F,,,,,,,,,,,0,none,contain+duration,longmire,triangular,0,expert,experiment,KUPVH,1461583,26,128313
"ObjectId(""590a18edbe56e669301b3eab"")",triangular_testing,B,C,D,F,G,H,I,J,L,O,,,0,none,during,longmire,triangular,0,expert,experiment,KUPVH,1632175,27,169238
"ObjectId(""590a18edbe56e669301b3eac"")",triangular_testing,4,5,,,,,,,,,,,1,none,finishes,longmire,triangular,0,expert,experiment,KUPVH,1674423,28,40849
"ObjectId(""590a18edbe56e669301b3ead"")",triangular_testing,C,,,,,,,,,,,,1,none,starts+finishes,longmire,triangular,0,expert,experiment,KUPVH,1689536,29,13827
"ObjectId(""590a18edbe56e669301b3eae"")",triangular_testing,A,M,N,,,,,,,,,,1,none,overlap+overlap,longmire,triangular,0,expert,experiment,KUPVH,1758373,30,67562
"ObjectId(""590a18edbe56e669301b3eaf"")",triangular_testing,A,B,D,F,,,,,,,,,1,none,start+duration,longmire,triangular,0,expert,experiment,KUPVH,1798372,31,38624
"ObjectId(""590a18edbe56e669301b3eb0"")",triangular_testing,J,K,L,,,,,,,,,,0,none,during+overlap,longmire,triangular,0,expert,experiment,KUPVH,1869781,32,70103
"ObjectId(""590a18edbe56e669301b3eb1"")",triangular_testing,O,,,,,,,,,,,,1,none,meets,longmire,triangular,0,expert,experiment,KUPVH,1895854,33,24711
"ObjectId(""590a18edbe56e669301b3eb2"")",triangular_testing,M,,,,,,,,,,,,0,none,before+overlap,longmire,triangular,0,expert,experiment,KUPVH,1929434,34,32276
"ObjectId(""590a18edbe56e669301b3eb3"")",triangular_testing,6,8,,,,,,,,,,,1,none,starts,longmire,triangular,0,expert,experiment,KUPVH,1969305,35,38578
"ObjectId(""590a18edbe56e669301b3eb4"")",instructions_drawing,,,,,,,,,,,,,,,,,,0,expert,experiment,KUPVH,2664186,37,665210
"ObjectId(""590a18edbe56e669301b3eb5"")",drawingTest,C1,,,,,,,,,,,,1,none,duration,jones,none,0,expert,experiment,KUPVH,2702862,38,37293
"ObjectId(""590a18edbe56e669301b3eb6"")",drawingTest,Chris,3-4pm,,,,,,,,,,,1,none,overlap,jones,none,0,expert,experiment,KUPVH,2765426,39,61285
"ObjectId(""590a18edbe56e669301b3eb7"")",linear_scaffolded,C,L,,,,,,,,,,,0,show-interactive,start,longmire,linear,4,expert,experiment,NOS98,93823,5,21383
"ObjectId(""590a18edbe56e669301b3eb8"")",linear_scaffolded,H,J,K,L,O,,,,,,,,0,show-interactive,end,longmire,linear,4,expert,experiment,NOS98,150942,6,55807
"ObjectId(""590a18edbe56e669301b3eb9"")",linear_scaffolded,G,O,,,,,,,,,,,1,show-interactive,duration,longmire,linear,4,expert,experiment,NOS98,194628,7,42393
"ObjectId(""590a18edbe56e669301b3eba"")",linear_scaffolded,1,,,,,,,,,,,,1,show-interactive,midpoint,longmire,linear,4,expert,experiment,NOS98,216481,8,20555
"ObjectId(""590a18edbe56e669301b3ebb"")",linear_scaffolded,A,,,,,,,,,,,,1,show-interactive,start+overlap,longmire,linear,4,expert,experiment,NOS98,236593,9,18816
"ObjectId(""590a18edbe56e669301b3ebc"")",linear_testing,A,M,,,,,,,,,,,0,none,contain+duration,longmire,linear,4,expert,experiment,NOS98,451555,10,213678
"ObjectId(""590a18edbe56e669301b3ebd"")",linear_testing,K,L,,,,,,,,,,,1,none,during+overlap,longmire,linear,4,expert,experiment,NOS98,503590,11,50644
"ObjectId(""590a18edbe56e669301b3ebe"")",linear_testing,A,M,N,,,,,,,,,,1,none,overlap+overlap,longmire,linear,4,expert,experiment,NOS98,537168,12,32217
"ObjectId(""590a18edbe56e669301b3ebf"")",linear_testing,C,,,,,,,,,,,,1,none,starts+finishes,longmire,linear,4,expert,experiment,NOS98,558396,13,19879
"ObjectId(""590a18edbe56e669301b3ec0"")",linear_testing,O,,,,,,,,,,,,1,none,meets,longmire,linear,4,expert,experiment,NOS98,582185,14,22484
"ObjectId(""590a18edbe56e669301b3ec1"")",linear_testing,A,B,C,D,F,I,,,,,,,1,none,before+overlap,longmire,linear,4,expert,experiment,NOS98,634215,15,50713
"ObjectId(""590a18edbe56e669301b3ec2"")",linear_testing,6,8,,,,,,,,,,,1,none,starts,longmire,linear,4,expert,experiment,NOS98,672993,16,37470
"ObjectId(""590a18edbe56e669301b3ec3"")",linear_testing,4,5,,,,,,,,,,,1,none,finishes,longmire,linear,4,expert,experiment,NOS98,717867,17,43561
"ObjectId(""590a18edbe56e669301b3ec4"")",linear_testing,A,B,D,F,,,,,,,,,1,none,start+duration,longmire,linear,4,expert,experiment,NOS98,753430,18,34245
"ObjectId(""590a18edbe56e669301b3ec5"")",linear_testing,A,M,N,,,,,,,,,,0,none,during,longmire,linear,4,expert,experiment,NOS98,784944,19,30220
"ObjectId(""590a18edbe56e669301b3ec6"")",triangular_scaffolded,H,O,,,,,,,,,,,1,show-interactive,start,axis,triangular,4,expert,experiment,NOS98,827593,21,37329
"ObjectId(""590a18edbe56e669301b3ec7"")",triangular_scaffolded,4,,,,,,,,,,,,1,show-interactive,end,axis,triangular,4,expert,experiment,NOS98,835194,22,6296
"ObjectId(""590a18edbe56e669301b3ec8"")",triangular_scaffolded,A,C,E,F,G,H,I,K,L,,,,1,show-interactive,duration,axis,triangular,4,expert,experiment,NOS98,877964,23,41468
"ObjectId(""590a18edbe56e669301b3ec9"")",triangular_scaffolded,8,,,,,,,,,,,,1,show-interactive,midpoint,axis,triangular,4,expert,experiment,NOS98,901357,24,22088
"ObjectId(""590a18edbe56e669301b3eca"")",triangular_scaffolded,7,,,,,,,,,,,,1,show-interactive,start+overlap,axis,triangular,4,expert,experiment,NOS98,928427,25,25762
"ObjectId(""590a18edbe56e669301b3ecb"")",triangular_testing,G,,,,,,,,,,,,1,none,starts+finishes,axis,triangular,4,expert,experiment,NOS98,942473,26,12742
"ObjectId(""590a18edbe56e669301b3ecc"")",triangular_testing,F,G,M,O,,,,,,,,,1,none,before+overlap,axis,triangular,4,expert,experiment,NOS98,987081,27,43301
"ObjectId(""590a18edbe56e669301b3ecd"")",triangular_testing,A,,,,,,,,,,,,1,none,during+overlap,axis,triangular,4,expert,experiment,NOS98,1030232,28,41830
"ObjectId(""590a18edbe56e669301b3ece"")",triangular_testing,G,O,,,,,,,,,,,1,none,finishes,axis,triangular,4,expert,experiment,NOS98,1041514,29,9955
"ObjectId(""590a18edbe56e669301b3ecf"")",triangular_testing,6,,,,,,,,,,,,1,none,starts,axis,triangular,4,expert,experiment,NOS98,1070837,30,28014
"ObjectId(""590a18edbe56e669301b3ed0"")",triangular_testing,G,,,,,,,,,,,,1,none,meets,axis,triangular,4,expert,experiment,NOS98,1123109,31,50965
"ObjectId(""590a18edbe56e669301b3ed1"")",triangular_testing,F,M,O,,,,,,,,,,1,none,during,axis,triangular,4,expert,experiment,NOS98,1156355,32,31947
"ObjectId(""590a18edbe56e669301b3ed2"")",triangular_testing,4,,,,,,,,,,,,0,none,start+duration,axis,triangular,4,expert,experiment,NOS98,1179606,33,21956
"ObjectId(""590a18edbe56e669301b3ed3"")",triangular_testing,D,M,N,O,,,,,,,,,1,none,contain+duration,axis,triangular,4,expert,experiment,NOS98,1215390,34,34472
"ObjectId(""590a18edbe56e669301b3ed4"")",triangular_testing,B,,,,,,,,,,,,0,none,overlap+overlap,axis,triangular,4,expert,experiment,NOS98,1278877,35,62188
"ObjectId(""590a18edbe56e669301b3ed5"")",instructions_drawing,,,,,,,,,,,,,,,,,,4,expert,experiment,NOS98,1740952,37,457740
"ObjectId(""590a18edbe56e669301b3ed6"")",drawingTest,C1,,,,,,,,,,,,1,none,duration,jones,none,4,expert,experiment,NOS98,1749336,38,7023
"ObjectId(""590a18edbe56e669301b3ed7"")",drawingTest,Chris,3-4pm,,,,,,,,,,,1,none,overlap,jones,none,4,expert,experiment,NOS98,1754782,39,4164
"ObjectId(""590a18edbe56e669301b3ed8"")",linear_scaffolded,H,O,,,,,,,,,,,1,show-interactive,start,axis,linear,4,expert,experiment,V7F3B,54146,5,22213
"ObjectId(""590a18edbe56e669301b3ed9"")",linear_scaffolded,4,,,,,,,,,,,,1,show-interactive,end,axis,linear,4,expert,experiment,V7F3B,71730,6,16286
"ObjectId(""590a18edbe56e669301b3eda"")",linear_scaffolded,A,C,E,F,G,H,I,K,L,,,,1,show-interactive,duration,axis,linear,4,expert,experiment,V7F3B,131737,7,58684
"ObjectId(""590a18edbe56e669301b3edb"")",linear_scaffolded,8,,,,,,,,,,,,1,show-interactive,midpoint,axis,linear,4,expert,experiment,V7F3B,164428,8,31328
"ObjectId(""590a18edbe56e669301b3edc"")",linear_scaffolded,7,,,,,,,,,,,,1,show-interactive,start+overlap,axis,linear,4,expert,experiment,V7F3B,184959,9,19244
"ObjectId(""590a18edbe56e669301b3edd"")",linear_testing,F,G,O,,,,,,,,,,0,none,before+overlap,axis,linear,4,expert,experiment,V7F3B,248392,10,62145
"ObjectId(""590a18edbe56e669301b3ede"")",linear_testing,A,,,,,,,,,,,,0,none,during,axis,linear,4,expert,experiment,V7F3B,278670,11,28912
"ObjectId(""590a18edbe56e669301b3edf"")",linear_testing,G,O,,,,,,,,,,,1,none,finishes,axis,linear,4,expert,experiment,V7F3B,293501,12,13550
"ObjectId(""590a18edbe56e669301b3ee0"")",linear_testing,9,,,,,,,,,,,,1,none,start+duration,axis,linear,4,expert,experiment,V7F3B,322894,13,28104
"ObjectId(""590a18edbe56e669301b3ee1"")",linear_testing,D,M,N,O,,,,,,,,,1,none,contain+duration,axis,linear,4,expert,experiment,V7F3B,371382,14,47201
"ObjectId(""590a18edbe56e669301b3ee2"")",linear_testing,G,,,,,,,,,,,,1,none,starts+finishes,axis,linear,4,expert,experiment,V7F3B,427376,15,54710
"ObjectId(""590a18edbe56e669301b3ee3"")",linear_testing,F,G,O,,,,,,,,,,0,none,meets,axis,linear,4,expert,experiment,V7F3B,473948,16,45268
"ObjectId(""590a18edbe56e669301b3ee4"")",linear_testing,6,,,,,,,,,,,,1,none,starts,axis,linear,4,expert,experiment,V7F3B,504166,17,28939
"ObjectId(""590a18edbe56e669301b3ee5"")",linear_testing,A,,,,,,,,,,,,1,none,during+overlap,axis,linear,4,expert,experiment,V7F3B,536923,18,31471
"ObjectId(""590a18edbe56e669301b3ee6"")",linear_testing,A,B,C,E,J,,,,,,,,1,none,overlap+overlap,axis,linear,4,expert,experiment,V7F3B,595239,19,57017
"ObjectId(""590a18edbe56e669301b3ee7"")",triangular_scaffolded,C,D,L,,,,,,,,,,1,show-interactive,start,longmire,triangular,4,expert,experiment,V7F3B,624538,21,24192
"ObjectId(""590a18edbe56e669301b3ee8"")",triangular_scaffolded,H,J,K,L,M,N,O,,,,,,1,show-interactive,end,longmire,triangular,4,expert,experiment,V7F3B,656591,22,30758
"ObjectId(""590a18edbe56e669301b3ee9"")",triangular_scaffolded,G,O,,,,,,,,,,,1,show-interactive,duration,longmire,triangular,4,expert,experiment,V7F3B,674173,23,16294
"ObjectId(""590a18edbe56e669301b3eea"")",triangular_scaffolded,1,,,,,,,,,,,,1,show-interactive,midpoint,longmire,triangular,4,expert,experiment,V7F3B,694407,24,18952
"ObjectId(""590a18edbe56e669301b3eeb"")",triangular_scaffolded,A,,,,,,,,,,,,1,show-interactive,start+overlap,longmire,triangular,4,expert,experiment,V7F3B,720384,25,24694
"ObjectId(""590a18edbe56e669301b3eec"")",triangular_testing,O,,,,,,,,,,,,1,none,meets,longmire,triangular,4,expert,experiment,V7F3B,737014,26,15335
"ObjectId(""590a18edbe56e669301b3eed"")",triangular_testing,M,,,,,,,,,,,,0,none,before+overlap,longmire,triangular,4,expert,experiment,V7F3B,760710,27,22394
"ObjectId(""590a18edbe56e669301b3eee"")",triangular_testing,C,,,,,,,,,,,,1,none,starts+finishes,longmire,triangular,4,expert,experiment,V7F3B,775896,28,13898
"ObjectId(""590a18edbe56e669301b3eef"")",triangular_testing,6,8,,,,,,,,,,,1,none,starts,longmire,triangular,4,expert,experiment,V7F3B,804580,29,27408
"ObjectId(""590a18edbe56e669301b3ef0"")",triangular_testing,B,F,,,,,,,,,,,0,none,contain+duration,longmire,triangular,4,expert,experiment,V7F3B,843122,30,36855
"ObjectId(""590a18edbe56e669301b3ef1"")",triangular_testing,4,5,,,,,,,,,,,1,none,finishes,longmire,triangular,4,expert,experiment,V7F3B,863602,31,19180
"ObjectId(""590a18edbe56e669301b3ef2"")",triangular_testing,A,M,N,,,,,,,,,,1,none,overlap+overlap,longmire,triangular,4,expert,experiment,V7F3B,903858,32,38965
"ObjectId(""590a18edbe56e669301b3ef3"")",triangular_testing,B,C,D,F,G,H,I,J,L,O,,,0,none,during,longmire,triangular,4,expert,experiment,V7F3B,1007351,33,102218
"ObjectId(""590a18edbe56e669301b3ef4"")",triangular_testing,A,B,D,F,,,,,,,,,1,none,start+duration,longmire,triangular,4,expert,experiment,V7F3B,1037208,34,28488
"ObjectId(""590a18edbe56e669301b3ef5"")",triangular_testing,K,L,,,,,,,,,,,1,none,during+overlap,longmire,triangular,4,expert,experiment,V7F3B,1086315,35,47829
"ObjectId(""590a18edbe56e669301b3ef6"")",instructions_drawing,,,,,,,,,,,,,,,,,,4,expert,experiment,V7F3B,1419248,37,327791
"ObjectId(""590a18edbe56e669301b3ef7"")",drawingTest,C1,,,,,,,,,,,,1,none,duration,jones,none,4,expert,experiment,V7F3B,1439474,38,18849
"ObjectId(""590a18edbe56e669301b3ef8"")",drawingTest,Chris,3-4pm,,,,,,,,,,,1,none,overlap,jones,none,4,expert,experiment,V7F3B,1456045,39,15293
"ObjectId(""590a18edbe56e669301b3ef9"")",linear_scaffolded,C,D,L,,,,,,,,,,1,show-interactive,start,longmire,linear,4,expert,experiment,1J0CV,72280,5,34370
"ObjectId(""590a18edbe56e669301b3efa"")",linear_scaffolded,H,J,K,L,M,N,O,,,,,,1,show-interactive,end,longmire,linear,4,expert,experiment,1J0CV,141991,6,68427
"ObjectId(""590a18edbe56e669301b3efb"")",linear_scaffolded,G,O,,,,,,,,,,,1,show-interactive,duration,longmire,linear,4,expert,experiment,1J0CV,181211,7,37540
"ObjectId(""590a18edbe56e669301b3efc"")",linear_scaffolded,1,,,,,,,,,,,,1,show-interactive,midpoint,longmire,linear,4,expert,experiment,1J0CV,208415,8,25917
"ObjectId(""590a18edbe56e669301b3efd"")",linear_scaffolded,A,,,,,,,,,,,,1,show-interactive,start+overlap,longmire,linear,4,expert,experiment,1J0CV,224743,9,15044
"ObjectId(""590a18edbe56e669301b3efe"")",linear_testing,6,8,,,,,,,,,,,1,none,starts,longmire,linear,4,expert,experiment,1J0CV,288606,10,62590
"ObjectId(""590a18edbe56e669301b3eff"")",linear_testing,C,,,,,,,,,,,,1,none,starts+finishes,longmire,linear,4,expert,experiment,1J0CV,316329,11,26285
"ObjectId(""590a18edbe56e669301b3f00"")",linear_testing,A,M,N,,,,,,,,,,1,none,overlap+overlap,longmire,linear,4,expert,experiment,1J0CV,376015,12,58402
"ObjectId(""590a18edbe56e669301b3f01"")",linear_testing,4,5,,,,,,,,,,,1,none,finishes,longmire,linear,4,expert,experiment,1J0CV,435079,13,57344
"ObjectId(""590a18edbe56e669301b3f02"")",linear_testing,A,B,D,F,,,,,,,,,1,none,start+duration,longmire,linear,4,expert,experiment,1J0CV,517387,14,81029
"ObjectId(""590a18edbe56e669301b3f03"")",linear_testing,K,L,,,,,,,,,,,1,none,during+overlap,longmire,linear,4,expert,experiment,1J0CV,566474,15,47437
"ObjectId(""590a18edbe56e669301b3f04"")",linear_testing,A,B,C,D,F,I,,,,,,,1,none,before+overlap,longmire,linear,4,expert,experiment,1J0CV,639945,16,72192
"ObjectId(""590a18edbe56e669301b3f05"")",linear_testing,G,O,,,,,,,,,,,1,none,contain+duration,longmire,linear,4,expert,experiment,1J0CV,663351,17,22012
"ObjectId(""590a18edbe56e669301b3f06"")",linear_testing,O,,,,,,,,,,,,1,none,meets,longmire,linear,4,expert,experiment,1J0CV,685033,18,20405
"ObjectId(""590a18edbe56e669301b3f07"")",linear_testing,B,C,D,F,G,,,,,,,,1,none,during,longmire,linear,4,expert,experiment,1J0CV,777755,19,91444
"ObjectId(""590a18edbe56e669301b3f08"")",triangular_scaffolded,H,O,,,,,,,,,,,1,show-interactive,start,axis,triangular,4,expert,experiment,1J0CV,802235,21,20974
"ObjectId(""590a18edbe56e669301b3f09"")",triangular_scaffolded,4,,,,,,,,,,,,1,show-interactive,end,axis,triangular,4,expert,experiment,1J0CV,811185,22,7668
"ObjectId(""590a18edbe56e669301b3f0a"")",triangular_scaffolded,A,C,E,F,G,H,I,K,L,,,,1,show-interactive,duration,axis,triangular,4,expert,experiment,1J0CV,868349,23,55876
"ObjectId(""590a18edbe56e669301b3f0b"")",triangular_scaffolded,8,,,,,,,,,,,,1,show-interactive,midpoint,axis,triangular,4,expert,experiment,1J0CV,898668,24,28984
"ObjectId(""590a18edbe56e669301b3f0c"")",triangular_scaffolded,7,,,,,,,,,,,,1,show-interactive,start+overlap,axis,triangular,4,expert,experiment,1J0CV,967920,25,67965
"ObjectId(""590a18edbe56e669301b3f0d"")",triangular_testing,A,,,,,,,,,,,,1,none,during+overlap,axis,triangular,4,expert,experiment,1J0CV,1012168,26,42855
"ObjectId(""590a18edbe56e669301b3f0e"")",triangular_testing,A,B,C,E,J,,,,,,,,1,none,overlap+overlap,axis,triangular,4,expert,experiment,1J0CV,1086505,27,73049
"ObjectId(""590a18edbe56e669301b3f0f"")",triangular_testing,9,,,,,,,,,,,,1,none,start+duration,axis,triangular,4,expert,experiment,1J0CV,1110543,28,22698
"ObjectId(""590a18edbe56e669301b3f10"")",triangular_testing,G,O,,,,,,,,,,,1,none,finishes,axis,triangular,4,expert,experiment,1J0CV,1129873,29,18059
"ObjectId(""590a18edbe56e669301b3f11"")",triangular_testing,D,M,N,O,,,,,,,,,1,none,contain+duration,axis,triangular,4,expert,experiment,1J0CV,1177521,30,46372
"ObjectId(""590a18edbe56e669301b3f12"")",triangular_testing,G,,,,,,,,,,,,1,none,starts+finishes,axis,triangular,4,expert,experiment,1J0CV,1187288,31,8501
"ObjectId(""590a18edbe56e669301b3f13"")",triangular_testing,F,M,O,,,,,,,,,,1,none,during,axis,triangular,4,expert,experiment,1J0CV,1203472,32,14614
"ObjectId(""590a18edbe56e669301b3f14"")",triangular_testing,6,,,,,,,,,,,,1,none,starts,axis,triangular,4,expert,experiment,1J0CV,1222673,33,17921
"ObjectId(""590a18edbe56e669301b3f15"")",triangular_testing,G,,,,,,,,,,,,1,none,meets,axis,triangular,4,expert,experiment,1J0CV,1265748,34,41808
"ObjectId(""590a18edbe56e669301b3f16"")",triangular_testing,F,G,M,O,,,,,,,,,1,none,before+overlap,axis,triangular,4,expert,experiment,1J0CV,1328496,35,61480
"ObjectId(""590a18edbe56e669301b3f17"")",instructions_drawing,,,,,,,,,,,,,,,,,,4,expert,experiment,1J0CV,1613471,37,281441
"ObjectId(""590a18edbe56e669301b3f18"")",drawingTest,C1,,,,,,,,,,,,1,none,duration,jones,none,4,expert,experiment,1J0CV,1638009,38,23179
"ObjectId(""590a18edbe56e669301b3f19"")",drawingTest,Chris,3-4pm,,,,,,,,,,,1,none,overlap,jones,none,4,expert,experiment,1J0CV,1657841,39,18548
"ObjectId(""590a18edbe56e669301b3f1a"")",triangular_scaffolded,G,,,,,,,,,,,,0,none,start,axis,triangular,0,linear,reverse,6MH9U,372571,5,35114
"ObjectId(""590a18edbe56e669301b3f1b"")",triangular_scaffolded,6,,,,,,,,,,,,0,none,end,axis,triangular,0,linear,reverse,6MH9U,406634,6,32767
"ObjectId(""590a18edbe56e669301b3f1c"")",triangular_scaffolded,A,C,E,F,G,H,I,K,L,,,,1,none,duration,axis,triangular,0,linear,reverse,6MH9U,452001,7,44072
"ObjectId(""590a18edbe56e669301b3f1d"")",triangular_scaffolded,11,,,,,,,,,,,,0,none,midpoint,axis,triangular,0,linear,reverse,6MH9U,536802,8,83511
"ObjectId(""590a18edbe56e669301b3f1e"")",triangular_scaffolded,10,,,,,,,,,,,,0,none,start+overlap,axis,triangular,0,linear,reverse,6MH9U,581968,9,43822
"ObjectId(""590a18edbe56e669301b3f1f"")",triangular_testing,D,N,,,,,,,,,,,0,none,contain+duration,axis,triangular,0,linear,reverse,6MH9U,604657,10,21419
"ObjectId(""590a18edbe56e669301b3f20"")",triangular_testing,,,,,,,,,,,,,0,none,starts+finishes,axis,triangular,0,linear,reverse,6MH9U,672901,11,66977
"ObjectId(""590a18edbe56e669301b3f21"")",triangular_testing,F,M,,,,,,,,,,,0,none,before+overlap,axis,triangular,0,linear,reverse,6MH9U,721765,12,47518
"ObjectId(""590a18edbe56e669301b3f22"")",triangular_testing,10,,,,,,,,,,,,0,none,start+duration,axis,triangular,0,linear,reverse,6MH9U,738470,13,15443
"ObjectId(""590a18edbe56e669301b3f23"")",triangular_testing,,,,,,,,,,,,,0,none,meets,axis,triangular,0,linear,reverse,6MH9U,776191,14,36458
"ObjectId(""590a18edbe56e669301b3f24"")",triangular_testing,,,,,,,,,,,,,0,none,during,axis,triangular,0,linear,reverse,6MH9U,778016,15,562
"ObjectId(""590a18edbe56e669301b3f25"")",triangular_testing,4,,,,,,,,,,,,0,none,starts,axis,triangular,0,linear,reverse,6MH9U,801656,16,22382
"ObjectId(""590a18edbe56e669301b3f26"")",triangular_testing,F,,,,,,,,,,,,0,none,finishes,axis,triangular,0,linear,reverse,6MH9U,816483,17,13568
"ObjectId(""590a18edbe56e669301b3f27"")",triangular_testing,E,,,,,,,,,,,,0,none,during+overlap,axis,triangular,0,linear,reverse,6MH9U,844486,18,26743
"ObjectId(""590a18edbe56e669301b3f28"")",triangular_testing,B,C,E,J,,,,,,,,,0,none,overlap+overlap,axis,triangular,0,linear,reverse,6MH9U,883316,19,37564
"ObjectId(""590a18edbe56e669301b3f29"")",linear_scaffolded,,,,,,,,,,,,,0,none,start,longmire,linear,0,linear,reverse,6MH9U,950036,21,62274
"ObjectId(""590a18edbe56e669301b3f2a"")",linear_scaffolded,C,E,H,I,J,K,L,O,,,,,0,none,end,longmire,linear,0,linear,reverse,6MH9U,982418,22,31010
"ObjectId(""590a18edbe56e669301b3f2b"")",linear_scaffolded,G,O,,,,,,,,,,,1,none,duration,longmire,linear,0,linear,reverse,6MH9U,991948,23,8256
"ObjectId(""590a18edbe56e669301b3f2c"")",linear_scaffolded,4,,,,,,,,,,,,0,none,midpoint,longmire,linear,0,linear,reverse,6MH9U,1007148,24,13923
"ObjectId(""590a18edbe56e669301b3f2d"")",linear_scaffolded,A,,,,,,,,,,,,1,none,start+overlap,longmire,linear,0,linear,reverse,6MH9U,1031578,25,23164
"ObjectId(""590a18edbe56e669301b3f2e"")",linear_testing,A,B,D,F,,,,,,,,,1,none,start+duration,longmire,linear,0,linear,reverse,6MH9U,1071052,26,38206
"ObjectId(""590a18edbe56e669301b3f2f"")",linear_testing,,,,,,,,,,,,,0,none,starts,longmire,linear,0,linear,reverse,6MH9U,1092458,27,20128
"ObjectId(""590a18edbe56e669301b3f30"")",linear_testing,G,H,M,O,,,,,,,,,0,none,during,longmire,linear,0,linear,reverse,6MH9U,1192708,28,98968
"ObjectId(""590a18edbe56e669301b3f31"")",linear_testing,O,,,,,,,,,,,,1,none,meets,longmire,linear,0,linear,reverse,6MH9U,1228635,29,34572
"ObjectId(""590a18edbe56e669301b3f32"")",linear_testing,A,B,D,F,,,,,,,,,0,none,before+overlap,longmire,linear,0,linear,reverse,6MH9U,1261206,30,31296
"ObjectId(""590a18edbe56e669301b3f33"")",linear_testing,,,,,,,,,,,,,0,none,starts+finishes,longmire,linear,0,linear,reverse,6MH9U,1279887,31,17408
"ObjectId(""590a18edbe56e669301b3f34"")",linear_testing,,,,,,,,,,,,,0,none,during+overlap,longmire,linear,0,linear,reverse,6MH9U,1318040,32,36877
"ObjectId(""590a18edbe56e669301b3f35"")",linear_testing,A,,,,,,,,,,,,0,none,overlap+overlap,longmire,linear,0,linear,reverse,6MH9U,1335849,33,16537
"ObjectId(""590a18edbe56e669301b3f36"")",linear_testing,G,O,,,,,,,,,,,1,none,contain+duration,longmire,linear,0,linear,reverse,6MH9U,1352749,34,15628
"ObjectId(""590a18edbe56e669301b3f37"")",linear_testing,,,,,,,,,,,,,0,none,finishes,longmire,linear,0,linear,reverse,6MH9U,1381991,35,27972
"ObjectId(""590a18edbe56e669301b3f38"")",instructions_drawing,,,,,,,,,,,,,,,,,,0,linear,reverse,6MH9U,1396157,37,8628
"ObjectId(""590a18edbe56e669301b3f39"")",drawingTest,C1,,,,,,,,,,,,1,none,duration,jones,none,0,linear,reverse,6MH9U,1406672,38,9243
"ObjectId(""590a18edbe56e669301b3f3a"")",drawingTest,Chris,3-4pm,,,,,,,,,,,1,none,overlap,jones,none,0,linear,reverse,6MH9U,1410955,39,3013
"ObjectId(""590a18edbe56e669301b3f3b"")",triangular_scaffolded,B,,,,,,,,,,,,0,none,start,longmire,triangular,0,linear,reverse,C1ATL,34532,5,14575
"ObjectId(""590a18edbe56e669301b3f3c"")",triangular_scaffolded,E,G,H,I,J,K,L,M,N,O,,,0,none,end,longmire,triangular,0,linear,reverse,C1ATL,67736,6,31844
"ObjectId(""590a18edbe56e669301b3f3d"")",triangular_scaffolded,G,O,,,,,,,,,,,1,none,duration,longmire,triangular,0,linear,reverse,C1ATL,78509,7,9416
"ObjectId(""590a18edbe56e669301b3f3e"")",triangular_scaffolded,3,,,,,,,,,,,,0,none,midpoint,longmire,triangular,0,linear,reverse,C1ATL,96119,8,16233
"ObjectId(""590a18edbe56e669301b3f3f"")",triangular_scaffolded,O,,,,,,,,,,,,0,none,start+overlap,longmire,triangular,0,linear,reverse,C1ATL,111392,9,13930
"ObjectId(""590a18edbe56e669301b3f40"")",triangular_testing,A,D,,,,,,,,,,,0,none,during,longmire,triangular,0,linear,reverse,C1ATL,139159,10,26415
"ObjectId(""590a18edbe56e669301b3f41"")",triangular_testing,A,,,,,,,,,,,,0,none,overlap+overlap,longmire,triangular,0,linear,reverse,C1ATL,156260,11,15721
"ObjectId(""590a18edbe56e669301b3f42"")",triangular_testing,A,B,D,F,,,,,,,,,1,none,start+duration,longmire,triangular,0,linear,reverse,C1ATL,175115,12,17483
"ObjectId(""590a18edbe56e669301b3f43"")",triangular_testing,A,B,D,F,,,,,,,,,0,none,before+overlap,longmire,triangular,0,linear,reverse,C1ATL,198315,13,21849
"ObjectId(""590a18edbe56e669301b3f44"")",triangular_testing,A,B,D,,,,,,,,,,0,none,contain+duration,longmire,triangular,0,linear,reverse,C1ATL,227390,14,27713
"ObjectId(""590a18edbe56e669301b3f45"")",triangular_testing,9,,,,,,,,,,,,0,none,starts,longmire,triangular,0,linear,reverse,C1ATL,263899,15,35102
"ObjectId(""590a18edbe56e669301b3f46"")",triangular_testing,I,,,,,,,,,,,,0,none,during+overlap,longmire,triangular,0,linear,reverse,C1ATL,285569,16,20187
"ObjectId(""590a18edbe56e669301b3f47"")",triangular_testing,E,,,,,,,,,,,,0,none,starts+finishes,longmire,triangular,0,linear,reverse,C1ATL,343760,17,56837
"ObjectId(""590a18edbe56e669301b3f48"")",triangular_testing,O,,,,,,,,,,,,1,none,meets,longmire,triangular,0,linear,reverse,C1ATL,358013,18,12891
"ObjectId(""590a18edbe56e669301b3f49"")",triangular_testing,6,,,,,,,,,,,,0,none,finishes,longmire,triangular,0,linear,reverse,C1ATL,372525,19,13137
"ObjectId(""590a18edbe56e669301b3f4a"")",linear_scaffolded,H,O,,,,,,,,,,,1,none,start,axis,linear,0,linear,reverse,C1ATL,397068,21,12647
"ObjectId(""590a18edbe56e669301b3f4b"")",linear_scaffolded,4,,,,,,,,,,,,1,none,end,axis,linear,0,linear,reverse,C1ATL,407493,22,9051
"ObjectId(""590a18edbe56e669301b3f4c"")",linear_scaffolded,A,C,E,F,G,H,I,K,L,,,,1,none,duration,axis,linear,0,linear,reverse,C1ATL,436325,23,27472
"ObjectId(""590a18edbe56e669301b3f4d"")",linear_scaffolded,8,,,,,,,,,,,,1,none,midpoint,axis,linear,0,linear,reverse,C1ATL,449112,24,11392
"ObjectId(""590a18edbe56e669301b3f4e"")",linear_scaffolded,7,,,,,,,,,,,,1,none,start+overlap,axis,linear,0,linear,reverse,C1ATL,466974,25,16489
"ObjectId(""590a18edbe56e669301b3f4f"")",linear_testing,A,,,,,,,,,,,,1,none,during+overlap,axis,linear,0,linear,reverse,C1ATL,494321,26,25981
"ObjectId(""590a18edbe56e669301b3f50"")",linear_testing,F,M,,,,,,,,,,,0,none,during,axis,linear,0,linear,reverse,C1ATL,511650,27,15958
"ObjectId(""590a18edbe56e669301b3f51"")",linear_testing,D,M,N,O,,,,,,,,,1,none,contain+duration,axis,linear,0,linear,reverse,C1ATL,542781,28,29770
"ObjectId(""590a18edbe56e669301b3f52"")",linear_testing,A,B,C,E,F,J,,,,,,,0,none,overlap+overlap,axis,linear,0,linear,reverse,C1ATL,588254,29,44102
"ObjectId(""590a18edbe56e669301b3f53"")",linear_testing,G,,,,,,,,,,,,1,none,starts+finishes,axis,linear,0,linear,reverse,C1ATL,598737,30,9115
"ObjectId(""590a18edbe56e669301b3f54"")",linear_testing,F,M,O,,,,,,,,,,0,none,before+overlap,axis,linear,0,linear,reverse,C1ATL,635951,31,35854
"ObjectId(""590a18edbe56e669301b3f55"")",linear_testing,G,O,,,,,,,,,,,1,none,finishes,axis,linear,0,linear,reverse,C1ATL,649895,32,12587
"ObjectId(""590a18edbe56e669301b3f56"")",linear_testing,4,,,,,,,,,,,,0,none,start+duration,axis,linear,0,linear,reverse,C1ATL,664714,33,13460
"ObjectId(""590a18edbe56e669301b3f57"")",linear_testing,M,O,,,,,,,,,,,0,none,meets,axis,linear,0,linear,reverse,C1ATL,688520,34,22369
"ObjectId(""590a18edbe56e669301b3f58"")",linear_testing,6,,,,,,,,,,,,1,none,starts,axis,linear,0,linear,reverse,C1ATL,741106,35,51180
"ObjectId(""590a18edbe56e669301b3f59"")",instructions_drawing,,,,,,,,,,,,,,,,,,0,linear,reverse,C1ATL,759284,37,12762
"ObjectId(""590a18edbe56e669301b3f5a"")",drawingTest,C1,,,,,,,,,,,,1,none,duration,jones,none,0,linear,reverse,C1ATL,786863,38,26228
"ObjectId(""590a18edbe56e669301b3f5b"")",drawingTest,Chris,3-4pm,,,,,,,,,,,1,none,overlap,jones,none,0,linear,reverse,C1ATL,821641,39,33423
"ObjectId(""590a18edbe56e669301b3f5c"")",triangular_scaffolded,G,,,,,,,,,,,,0,none,start,axis,triangular,0,linear,reverse,U6LND,45336,5,13975
"ObjectId(""590a18edbe56e669301b3f5d"")",triangular_scaffolded,,,,,,,,,,,,,0,none,end,axis,triangular,0,linear,reverse,U6LND,64891,6,18000
"ObjectId(""590a18edbe56e669301b3f5e"")",triangular_scaffolded,A,C,E,F,G,H,I,K,L,,,,1,none,duration,axis,triangular,0,linear,reverse,U6LND,103142,7,36274
"ObjectId(""590a18edbe56e669301b3f5f"")",triangular_scaffolded,9,,,,,,,,,,,,0,none,midpoint,axis,triangular,0,linear,reverse,U6LND,128145,8,23170
"ObjectId(""590a18edbe56e669301b3f60"")",triangular_scaffolded,10,,,,,,,,,,,,0,none,start+overlap,axis,triangular,0,linear,reverse,U6LND,161696,9,30714
"ObjectId(""590a18edbe56e669301b3f61"")",triangular_testing,F,M,,,,,,,,,,,0,none,meets,axis,triangular,0,linear,reverse,U6LND,219583,10,55006
"ObjectId(""590a18edbe56e669301b3f62"")",triangular_testing,10,,,,,,,,,,,,0,none,start+duration,axis,triangular,0,linear,reverse,U6LND,238030,11,16986
"ObjectId(""590a18edbe56e669301b3f63"")",triangular_testing,,,,,,,,,,,,,0,none,finishes,axis,triangular,0,linear,reverse,U6LND,256111,12,16075
"ObjectId(""590a18edbe56e669301b3f64"")",triangular_testing,E,,,,,,,,,,,,0,none,during+overlap,axis,triangular,0,linear,reverse,U6LND,289174,13,30871
"ObjectId(""590a18edbe56e669301b3f65"")",triangular_testing,A,,,,,,,,,,,,0,none,during,axis,triangular,0,linear,reverse,U6LND,302336,14,11285
"ObjectId(""590a18edbe56e669301b3f66"")",triangular_testing,D,N,,,,,,,,,,,0,none,contain+duration,axis,triangular,0,linear,reverse,U6LND,326107,15,22412
"ObjectId(""590a18edbe56e669301b3f67"")",triangular_testing,B,,,,,,,,,,,,0,none,overlap+overlap,axis,triangular,0,linear,reverse,U6LND,340634,16,13171
"ObjectId(""590a18edbe56e669301b3f68"")",triangular_testing,4,,,,,,,,,,,,0,none,starts,axis,triangular,0,linear,reverse,U6LND,363733,17,21336
"ObjectId(""590a18edbe56e669301b3f69"")",triangular_testing,F,M,,,,,,,,,,,0,none,before+overlap,axis,triangular,0,linear,reverse,U6LND,411438,18,46274
"ObjectId(""590a18edbe56e669301b3f6a"")",triangular_testing,,,,,,,,,,,,,0,none,starts+finishes,axis,triangular,0,linear,reverse,U6LND,421598,19,8654
"ObjectId(""590a18edbe56e669301b3f6b"")",linear_scaffolded,,,,,,,,,,,,,0,none,start,longmire,linear,0,linear,reverse,U6LND,439054,21,7901
"ObjectId(""590a18edbe56e669301b3f6c"")",linear_scaffolded,M,N,,,,,,,,,,,0,none,end,longmire,linear,0,linear,reverse,U6LND,459588,22,19059
"ObjectId(""590a18edbe56e669301b3f6d"")",linear_scaffolded,G,O,,,,,,,,,,,1,none,duration,longmire,linear,0,linear,reverse,U6LND,472017,23,11061
"ObjectId(""590a18edbe56e669301b3f6e"")",linear_scaffolded,4,,,,,,,,,,,,0,none,midpoint,longmire,linear,0,linear,reverse,U6LND,499257,24,25873
"ObjectId(""590a18edbe56e669301b3f6f"")",linear_scaffolded,A,,,,,,,,,,,,1,none,start+overlap,longmire,linear,0,linear,reverse,U6LND,513506,25,11940
"ObjectId(""590a18edbe56e669301b3f70"")",linear_testing,B,F,,,,,,,,,,,0,none,contain+duration,longmire,linear,0,linear,reverse,U6LND,565528,26,50659
"ObjectId(""590a18edbe56e669301b3f71"")",linear_testing,A,B,D,F,,,,,,,,,0,none,before+overlap,longmire,linear,0,linear,reverse,U6LND,610652,27,43111
"ObjectId(""590a18edbe56e669301b3f72"")",linear_testing,,,,,,,,,,,,,0,none,finishes,longmire,linear,0,linear,reverse,U6LND,636534,28,23774
"ObjectId(""590a18edbe56e669301b3f73"")",linear_testing,A,B,D,F,,,,,,,,,1,none,start+duration,longmire,linear,0,linear,reverse,U6LND,664510,29,26600
"ObjectId(""590a18edbe56e669301b3f74"")",linear_testing,E,,,,,,,,,,,,0,none,during+overlap,longmire,linear,0,linear,reverse,U6LND,684227,30,18320
"ObjectId(""590a18edbe56e669301b3f75"")",linear_testing,,,,,,,,,,,,,0,none,starts+finishes,longmire,linear,0,linear,reverse,U6LND,698599,31,12949
"ObjectId(""590a18edbe56e669301b3f76"")",linear_testing,O,,,,,,,,,,,,1,none,meets,longmire,linear,0,linear,reverse,U6LND,715114,32,15008
"ObjectId(""590a18edbe56e669301b3f77"")",linear_testing,A,,,,,,,,,,,,0,none,overlap+overlap,longmire,linear,0,linear,reverse,U6LND,744333,33,27278
"ObjectId(""590a18edbe56e669301b3f78"")",linear_testing,,,,,,,,,,,,,0,none,starts,longmire,linear,0,linear,reverse,U6LND,764012,34,17841
"ObjectId(""590a18edbe56e669301b3f79"")",linear_testing,B,C,F,G,H,I,J,K,L,M,N,O,0,none,during,longmire,linear,0,linear,reverse,U6LND,853982,35,88590
"ObjectId(""590a18edbe56e669301b3f7a"")",instructions_drawing,,,,,,,,,,,,,,,,,,0,linear,reverse,U6LND,869559,37,7440
"ObjectId(""590a18edbe56e669301b3f7b"")",drawingTest,,,,,,,,,,,,,0,none,duration,jones,none,0,linear,reverse,U6LND,875724,38,4809
"ObjectId(""590a18edbe56e669301b3f7c"")",drawingTest,,,,,,,,,,,,,0,none,overlap,jones,none,0,linear,reverse,U6LND,877692,39,571
"ObjectId(""590a18edbe56e669301b3f7d"")",triangular_scaffolded,C,D,L,,,,,,,,,,1,none,start,longmire,triangular,0,expert,reverse,FU8S3,197691,5,17322
"ObjectId(""590a18edbe56e669301b3f7e"")",triangular_scaffolded,H,J,K,L,M,N,O,,,,,,1,none,end,longmire,triangular,0,expert,reverse,FU8S3,226647,6,27636
"ObjectId(""590a18edbe56e669301b3f7f"")",triangular_scaffolded,G,O,,,,,,,,,,,1,none,duration,longmire,triangular,0,expert,reverse,FU8S3,234868,7,6920
"ObjectId(""590a18edbe56e669301b3f80"")",triangular_scaffolded,1,,,,,,,,,,,,1,none,midpoint,longmire,triangular,0,expert,reverse,FU8S3,245292,8,9106
"ObjectId(""590a18edbe56e669301b3f81"")",triangular_scaffolded,A,,,,,,,,,,,,1,none,start+overlap,longmire,triangular,0,expert,reverse,FU8S3,259311,9,12683
"ObjectId(""590a18edbe56e669301b3f82"")",triangular_testing,B,C,D,F,G,,,,,,,,1,none,during,longmire,triangular,0,expert,reverse,FU8S3,303728,10,43114
"ObjectId(""590a18edbe56e669301b3f83"")",triangular_testing,6,8,,,,,,,,,,,1,none,starts,longmire,triangular,0,expert,reverse,FU8S3,328321,11,14016
"ObjectId(""590a18edbe56e669301b3f84"")",triangular_testing,K,L,,,,,,,,,,,1,none,during+overlap,longmire,triangular,0,expert,reverse,FU8S3,378109,12,48412
"ObjectId(""590a18edbe56e669301b3f85"")",triangular_testing,4,5,,,,,,,,,,,1,none,finishes,longmire,triangular,0,expert,reverse,FU8S3,393862,13,14451
"ObjectId(""590a18edbe56e669301b3f86"")",triangular_testing,G,O,,,,,,,,,,,1,none,contain+duration,longmire,triangular,0,expert,reverse,FU8S3,437512,14,42338
"ObjectId(""590a18edbe56e669301b3f87"")",triangular_testing,A,M,N,,,,,,,,,,1,none,overlap+overlap,longmire,triangular,0,expert,reverse,FU8S3,455628,15,16812
"ObjectId(""590a18edbe56e669301b3f88"")",triangular_testing,A,B,C,D,F,I,,,,,,,1,none,before+overlap,longmire,triangular,0,expert,reverse,FU8S3,492435,16,35495
"ObjectId(""590a18edbe56e669301b3f89"")",triangular_testing,C,,,,,,,,,,,,1,none,starts+finishes,longmire,triangular,0,expert,reverse,FU8S3,503840,17,10091
"ObjectId(""590a18edbe56e669301b3f8a"")",triangular_testing,A,B,D,F,,,,,,,,,1,none,start+duration,longmire,triangular,0,expert,reverse,FU8S3,543314,18,38171
"ObjectId(""590a18edbe56e669301b3f8b"")",triangular_testing,O,,,,,,,,,,,,1,none,meets,longmire,triangular,0,expert,reverse,FU8S3,551963,19,7302
"ObjectId(""590a18edbe56e669301b3f8c"")",linear_scaffolded,H,O,,,,,,,,,,,1,none,start,axis,linear,0,expert,reverse,FU8S3,569599,21,14064
"ObjectId(""590a18edbe56e669301b3f8d"")",linear_scaffolded,4,,,,,,,,,,,,1,none,end,axis,linear,0,expert,reverse,FU8S3,578756,22,7849
"ObjectId(""590a18edbe56e669301b3f8e"")",linear_scaffolded,A,C,E,F,G,H,I,K,L,,,,1,none,duration,axis,linear,0,expert,reverse,FU8S3,614338,23,34273
"ObjectId(""590a18edbe56e669301b3f8f"")",linear_scaffolded,8,,,,,,,,,,,,1,none,midpoint,axis,linear,0,expert,reverse,FU8S3,626012,24,10367
"ObjectId(""590a18edbe56e669301b3f90"")",linear_scaffolded,7,,,,,,,,,,,,1,none,start+overlap,axis,linear,0,expert,reverse,FU8S3,643371,25,16053
"ObjectId(""590a18edbe56e669301b3f91"")",linear_testing,F,G,M,O,,,,,,,,,1,none,before+overlap,axis,linear,0,expert,reverse,FU8S3,672021,26,27347
"ObjectId(""590a18edbe56e669301b3f92"")",linear_testing,A,B,C,E,F,G,J,,,,,,0,none,overlap+overlap,axis,linear,0,expert,reverse,FU8S3,699147,27,25814
"ObjectId(""590a18edbe56e669301b3f93"")",linear_testing,G,,,,,,,,,,,,1,none,starts+finishes,axis,linear,0,expert,reverse,FU8S3,711604,28,11151
"ObjectId(""590a18edbe56e669301b3f94"")",linear_testing,D,M,N,O,,,,,,,,,1,none,contain+duration,axis,linear,0,expert,reverse,FU8S3,737166,29,24252
"ObjectId(""590a18edbe56e669301b3f95"")",linear_testing,G,O,,,,,,,,,,,1,none,finishes,axis,linear,0,expert,reverse,FU8S3,749121,30,10653
"ObjectId(""590a18edbe56e669301b3f96"")",linear_testing,4,,,,,,,,,,,,0,none,start+duration,axis,linear,0,expert,reverse,FU8S3,759936,31,9513
"ObjectId(""590a18edbe56e669301b3f97"")",linear_testing,G,,,,,,,,,,,,1,none,meets,axis,linear,0,expert,reverse,FU8S3,782544,32,21305
"ObjectId(""590a18edbe56e669301b3f98"")",linear_testing,F,M,O,,,,,,,,,,1,none,during,axis,linear,0,expert,reverse,FU8S3,801837,33,17979
"ObjectId(""590a18edbe56e669301b3f99"")",linear_testing,A,,,,,,,,,,,,1,none,during+overlap,axis,linear,0,expert,reverse,FU8S3,820133,34,16990
"ObjectId(""590a18edbe56e669301b3f9a"")",linear_testing,5,,,,,,,,,,,,0,none,starts,axis,linear,0,expert,reverse,FU8S3,849418,35,27979
"ObjectId(""590a18edbe56e669301b3f9b"")",instructions_drawing,,,,,,,,,,,,,,,,,,0,expert,reverse,FU8S3,857427,37,5029
"ObjectId(""590a18edbe56e669301b3f9c"")",drawingTest,C1,,,,,,,,,,,,1,none,duration,jones,none,0,expert,reverse,FU8S3,866256,38,7529
"ObjectId(""590a18edbe56e669301b3f9d"")",drawingTest,Chris,3-4pm,,,,,,,,,,,1,none,overlap,jones,none,0,expert,reverse,FU8S3,871437,39,3883
"ObjectId(""590a18edbe56e669301b3f9e"")",triangular_scaffolded,,,,,,,,,,,,,0,none,start,longmire,triangular,0,right,reverse,WE6V7,17526,5,2464
"ObjectId(""590a18edbe56e669301b3f9f"")",triangular_scaffolded,H,J,K,L,M,N,O,,,,,,1,none,end,longmire,triangular,0,right,reverse,WE6V7,41195,6,22350
"ObjectId(""590a18edbe56e669301b3fa0"")",triangular_scaffolded,G,O,,,,,,,,,,,1,none,duration,longmire,triangular,0,right,reverse,WE6V7,68497,7,26006
"ObjectId(""590a18edbe56e669301b3fa1"")",triangular_scaffolded,,,,,,,,,,,,,0,none,midpoint,longmire,triangular,0,right,reverse,WE6V7,76722,8,6933
"ObjectId(""590a18edbe56e669301b3fa2"")",triangular_scaffolded,A,,,,,,,,,,,,1,none,start+overlap,longmire,triangular,0,right,reverse,WE6V7,85198,9,7173
"ObjectId(""590a18edbe56e669301b3fa3"")",triangular_testing,L,,,,,,,,,,,,0,none,meets,longmire,triangular,0,right,reverse,WE6V7,112461,10,25966
"ObjectId(""590a18edbe56e669301b3fa4"")",triangular_testing,,,,,,,,,,,,,0,none,finishes,longmire,triangular,0,right,reverse,WE6V7,118787,11,5006
"ObjectId(""590a18edbe56e669301b3fa5"")",triangular_testing,A,B,D,F,,,,,,,,,1,none,start+duration,longmire,triangular,0,right,reverse,WE6V7,140502,12,20385
"ObjectId(""590a18edbe56e669301b3fa6"")",triangular_testing,C,F,G,H,I,J,K,L,O,,,,0,none,during,longmire,triangular,0,right,reverse,WE6V7,181323,13,39517
"ObjectId(""590a18edbe56e669301b3fa7"")",triangular_testing,A,B,C,D,F,I,,,,,,,1,none,before+overlap,longmire,triangular,0,right,reverse,WE6V7,214845,14,32175
"ObjectId(""590a18edbe56e669301b3fa8"")",triangular_testing,A,C,F,M,N,,,,,,,,0,none,overlap+overlap,longmire,triangular,0,right,reverse,WE6V7,260212,15,44073
"ObjectId(""590a18edbe56e669301b3fa9"")",triangular_testing,,,,,,,,,,,,,0,none,during+overlap,longmire,triangular,0,right,reverse,WE6V7,282356,16,20778
"ObjectId(""590a18edbe56e669301b3faa"")",triangular_testing,,,,,,,,,,,,,0,none,starts+finishes,longmire,triangular,0,right,reverse,WE6V7,299967,17,16252
"ObjectId(""590a18edbe56e669301b3fab"")",triangular_testing,B,F,,,,,,,,,,,0,none,contain+duration,longmire,triangular,0,right,reverse,WE6V7,315640,18,14352
"ObjectId(""590a18edbe56e669301b3fac"")",triangular_testing,,,,,,,,,,,,,0,none,starts,longmire,triangular,0,right,reverse,WE6V7,328290,19,11335
"ObjectId(""590a18edbe56e669301b3fad"")",linear_scaffolded,H,O,,,,,,,,,,,1,none,start,axis,linear,0,right,reverse,WE6V7,397822,21,13805
"ObjectId(""590a18edbe56e669301b3fae"")",linear_scaffolded,4,,,,,,,,,,,,1,none,end,axis,linear,0,right,reverse,WE6V7,406606,22,7466
"ObjectId(""590a18edbe56e669301b3faf"")",linear_scaffolded,A,C,E,F,G,H,I,K,L,,,,1,none,duration,axis,linear,0,right,reverse,WE6V7,433658,23,25701
"ObjectId(""590a18edbe56e669301b3fb0"")",linear_scaffolded,8,,,,,,,,,,,,1,none,midpoint,axis,linear,0,right,reverse,WE6V7,441199,24,6228
"ObjectId(""590a18edbe56e669301b3fb1"")",linear_scaffolded,7,,,,,,,,,,,,1,none,start+overlap,axis,linear,0,right,reverse,WE6V7,457238,25,14715
"ObjectId(""590a18edbe56e669301b3fb2"")",linear_testing,F,M,O,,,,,,,,,,1,none,during,axis,linear,0,right,reverse,WE6V7,473088,26,14490
"ObjectId(""590a18edbe56e669301b3fb3"")",linear_testing,G,,,,,,,,,,,,1,none,meets,axis,linear,0,right,reverse,WE6V7,484421,27,10002
"ObjectId(""590a18edbe56e669301b3fb4"")",linear_testing,F,G,M,O,,,,,,,,,1,none,before+overlap,axis,linear,0,right,reverse,WE6V7,520345,28,34184
"ObjectId(""590a18edbe56e669301b3fb5"")",linear_testing,6,,,,,,,,,,,,1,none,starts,axis,linear,0,right,reverse,WE6V7,535666,29,14006
"ObjectId(""590a18edbe56e669301b3fb6"")",linear_testing,A,B,C,E,F,G,J,,,,,,0,none,overlap+overlap,axis,linear,0,right,reverse,WE6V7,564353,30,27366
"ObjectId(""590a18edbe56e669301b3fb7"")",linear_testing,G,,,,,,,,,,,,1,none,starts+finishes,axis,linear,0,right,reverse,WE6V7,573451,31,7783
"ObjectId(""590a18edbe56e669301b3fb8"")",linear_testing,4,,,,,,,,,,,,0,none,start+duration,axis,linear,0,right,reverse,WE6V7,584698,32,9913
"ObjectId(""590a18edbe56e669301b3fb9"")",linear_testing,D,M,N,O,,,,,,,,,1,none,contain+duration,axis,linear,0,right,reverse,WE6V7,607973,33,21966
"ObjectId(""590a18edbe56e669301b3fba"")",linear_testing,G,O,,,,,,,,,,,1,none,finishes,axis,linear,0,right,reverse,WE6V7,618092,34,8811
"ObjectId(""590a18edbe56e669301b3fbb"")",linear_testing,A,,,,,,,,,,,,1,none,during+overlap,axis,linear,0,right,reverse,WE6V7,634231,35,14814
"ObjectId(""590a18edbe56e669301b3fbc"")",instructions_drawing,,,,,,,,,,,,,,,,,,0,right,reverse,WE6V7,643384,37,5925
"ObjectId(""590a18edbe56e669301b3fbd"")",drawingTest,C1,,,,,,,,,,,,1,none,duration,jones,none,0,right,reverse,WE6V7,647436,38,2754
"ObjectId(""590a18edbe56e669301b3fbe"")",drawingTest,Chris,3-4pm,,,,,,,,,,,1,none,overlap,jones,none,0,right,reverse,WE6V7,651866,39,3126
"ObjectId(""590a18edbe56e669301b3fbf"")",linear_scaffolded,C,D,L,,,,,,,,,,1,none,start,longmire,linear,0,expert,experiment,J8U9D,1127366,5,21281
"ObjectId(""590a18edbe56e669301b3fc0"")",linear_scaffolded,H,J,K,L,M,N,O,,,,,,1,none,end,longmire,linear,0,expert,experiment,J8U9D,1174413,6,45649
"ObjectId(""590a18edbe56e669301b3fc1"")",linear_scaffolded,G,O,,,,,,,,,,,1,none,duration,longmire,linear,0,expert,experiment,J8U9D,1224604,7,48837
"ObjectId(""590a18edbe56e669301b3fc2"")",linear_scaffolded,1,,,,,,,,,,,,1,none,midpoint,longmire,linear,0,expert,experiment,J8U9D,1273531,8,47599
"ObjectId(""590a18edbe56e669301b3fc3"")",linear_scaffolded,A,,,,,,,,,,,,1,none,start+overlap,longmire,linear,0,expert,experiment,J8U9D,1290136,9,15293
"ObjectId(""590a18edbe56e669301b3fc4"")",linear_testing,O,,,,,,,,,,,,1,none,meets,longmire,linear,0,expert,experiment,J8U9D,1310321,10,18876
"ObjectId(""590a18edbe56e669301b3fc5"")",linear_testing,A,B,D,F,,,,,,,,,1,none,start+duration,longmire,linear,0,expert,experiment,J8U9D,1370490,11,58846
"ObjectId(""590a18edbe56e669301b3fc6"")",linear_testing,6,8,,,,,,,,,,,1,none,starts,longmire,linear,0,expert,experiment,J8U9D,1435243,12,63201
"ObjectId(""590a18edbe56e669301b3fc7"")",linear_testing,C,,,,,,,,,,,,1,none,starts+finishes,longmire,linear,0,expert,experiment,J8U9D,1470028,13,33245
"ObjectId(""590a18edbe56e669301b3fc8"")",linear_testing,B,F,,,,,,,,,,,0,none,contain+duration,longmire,linear,0,expert,experiment,J8U9D,1611285,14,139905
"ObjectId(""590a18edbe56e669301b3fc9"")",linear_testing,B,C,D,F,G,H,I,J,K,L,O,,0,none,during,longmire,linear,0,expert,experiment,J8U9D,1931022,15,318187
"ObjectId(""590a18edbe56e669301b3fca"")",linear_testing,K,L,,,,,,,,,,,1,none,during+overlap,longmire,linear,0,expert,experiment,J8U9D,1983608,16,51055
"ObjectId(""590a18edbe56e669301b3fcb"")",linear_testing,A,B,C,D,F,I,,,,,,,1,none,before+overlap,longmire,linear,0,expert,experiment,J8U9D,2039800,17,54856
"ObjectId(""590a18edbe56e669301b3fcc"")",linear_testing,A,M,N,,,,,,,,,,1,none,overlap+overlap,longmire,linear,0,expert,experiment,J8U9D,2077029,18,35913
"ObjectId(""590a18edbe56e669301b3fcd"")",linear_testing,4,5,,,,,,,,,,,1,none,finishes,longmire,linear,0,expert,experiment,J8U9D,2168080,19,89706
"ObjectId(""590a18edbe56e669301b3fce"")",triangular_scaffolded,H,O,,,,,,,,,,,1,none,start,axis,triangular,0,expert,experiment,J8U9D,2185258,21,11699
"ObjectId(""590a18edbe56e669301b3fcf"")",triangular_scaffolded,4,,,,,,,,,,,,1,none,end,axis,triangular,0,expert,experiment,J8U9D,2192033,22,5453
"ObjectId(""590a18edbe56e669301b3fd0"")",triangular_scaffolded,A,C,E,F,G,H,I,K,L,,,,1,none,duration,axis,triangular,0,expert,experiment,J8U9D,2224624,23,31260
"ObjectId(""590a18edbe56e669301b3fd1"")",triangular_scaffolded,8,,,,,,,,,,,,1,none,midpoint,axis,triangular,0,expert,experiment,J8U9D,2244060,24,18119
"ObjectId(""590a18edbe56e669301b3fd2"")",triangular_scaffolded,8,,,,,,,,,,,,0,none,start+overlap,axis,triangular,0,expert,experiment,J8U9D,2285265,25,39881
"ObjectId(""590a18edbe56e669301b3fd3"")",triangular_testing,A,,,,,,,,,,,,1,none,during+overlap,axis,triangular,0,expert,experiment,J8U9D,2340601,26,53987
"ObjectId(""590a18edbe56e669301b3fd4"")",triangular_testing,6,,,,,,,,,,,,1,none,starts,axis,triangular,0,expert,experiment,J8U9D,2363468,27,21551
"ObjectId(""590a18edbe56e669301b3fd5"")",triangular_testing,D,M,N,O,,,,,,,,,1,none,contain+duration,axis,triangular,0,expert,experiment,J8U9D,2407477,28,42517
"ObjectId(""590a18edbe56e669301b3fd6"")",triangular_testing,G,O,,,,,,,,,,,1,none,finishes,axis,triangular,0,expert,experiment,J8U9D,2420752,29,11924
"ObjectId(""590a18edbe56e669301b3fd7"")",triangular_testing,G,,,,,,,,,,,,1,none,meets,axis,triangular,0,expert,experiment,J8U9D,2473826,30,51743
"ObjectId(""590a18edbe56e669301b3fd8"")",triangular_testing,G,,,,,,,,,,,,1,none,starts+finishes,axis,triangular,0,expert,experiment,J8U9D,2484854,31,9659
"ObjectId(""590a18edbe56e669301b3fd9"")",triangular_testing,9,,,,,,,,,,,,1,none,start+duration,axis,triangular,0,expert,experiment,J8U9D,2517634,32,31462
"ObjectId(""590a18edbe56e669301b3fda"")",triangular_testing,F,G,M,O,,,,,,,,,1,none,before+overlap,axis,triangular,0,expert,experiment,J8U9D,2577200,33,58239
"ObjectId(""590a18edbe56e669301b3fdb"")",triangular_testing,F,M,O,,,,,,,,,,1,none,during,axis,triangular,0,expert,experiment,J8U9D,2608595,34,30059
"ObjectId(""590a18edbe56e669301b3fdc"")",triangular_testing,A,B,C,E,J,,,,,,,,1,none,overlap+overlap,axis,triangular,0,expert,experiment,J8U9D,2666205,35,56291
"ObjectId(""590a18edbe56e669301b3fdd"")",instructions_drawing,,,,,,,,,,,,,,,,,,0,expert,experiment,J8U9D,2676857,37,6708
"ObjectId(""590a18edbe56e669301b3fde"")",drawingTest,C1,,,,,,,,,,,,1,none,duration,jones,none,0,expert,experiment,J8U9D,2799015,38,120835
"ObjectId(""590a18edbe56e669301b3fdf"")",drawingTest,Chris,3-4pm,,,,,,,,,,,1,none,overlap,jones,none,0,expert,experiment,J8U9D,2839050,39,38576
"ObjectId(""590a18edbe56e669301b3fe0"")",triangular_scaffolded,,,,,,,,,,,,,0,none,start,longmire,triangular,0,right,reverse,UMZCQ,640716,5,19276
"ObjectId(""590a18edbe56e669301b3fe1"")",triangular_scaffolded,H,J,K,L,M,N,O,,,,,,1,none,end,longmire,triangular,0,right,reverse,UMZCQ,686409,6,44316
"ObjectId(""590a18edbe56e669301b3fe2"")",triangular_scaffolded,,,,,,,,,,,,,0,none,duration,longmire,triangular,0,right,reverse,UMZCQ,762972,7,75053
"ObjectId(""590a18edbe56e669301b3fe3"")",triangular_scaffolded,2,,,,,,,,,,,,0,none,midpoint,longmire,triangular,0,right,reverse,UMZCQ,791241,8,26786
"ObjectId(""590a18edbe56e669301b3fe4"")",triangular_scaffolded,A,,,,,,,,,,,,1,none,start+overlap,longmire,triangular,0,right,reverse,UMZCQ,813571,9,20981
"ObjectId(""590a18edbe56e669301b3fe5"")",triangular_testing,A,B,C,D,F,,,,,,,,0,none,start+duration,longmire,triangular,0,right,reverse,UMZCQ,874527,10,59613
"ObjectId(""590a18edbe56e669301b3fe6"")",triangular_testing,4,5,,,,,,,,,,,1,none,finishes,longmire,triangular,0,right,reverse,UMZCQ,898240,11,22265
"ObjectId(""590a18edbe56e669301b3fe7"")",triangular_testing,B,F,,,,,,,,,,,0,none,contain+duration,longmire,triangular,0,right,reverse,UMZCQ,962735,12,63153
"ObjectId(""590a18edbe56e669301b3fe8"")",triangular_testing,A,B,C,D,F,I,M,,,,,,0,none,before+overlap,longmire,triangular,0,right,reverse,UMZCQ,1017215,13,53052
"ObjectId(""590a18edbe56e669301b3fe9"")",triangular_testing,C,F,G,H,I,L,O,,,,,,0,none,during,longmire,triangular,0,right,reverse,UMZCQ,1140069,14,121439
"ObjectId(""590a18edbe56e669301b3fea"")",triangular_testing,,,,,,,,,,,,,0,none,during+overlap,longmire,triangular,0,right,reverse,UMZCQ,1263664,15,122166
"ObjectId(""590a18edbe56e669301b3feb"")",triangular_testing,,,,,,,,,,,,,0,none,starts+finishes,longmire,triangular,0,right,reverse,UMZCQ,1278785,16,13670
"ObjectId(""590a18edbe56e669301b3fec"")",triangular_testing,,,,,,,,,,,,,0,none,starts,longmire,triangular,0,right,reverse,UMZCQ,1300258,17,20134
"ObjectId(""590a18edbe56e669301b3fed"")",triangular_testing,,,,,,,,,,,,,0,none,meets,longmire,triangular,0,right,reverse,UMZCQ,1318835,18,17242
"ObjectId(""590a18edbe56e669301b3fee"")",triangular_testing,A,C,F,M,N,,,,,,,,0,none,overlap+overlap,longmire,triangular,0,right,reverse,UMZCQ,1402068,19,81848
"ObjectId(""590a18edbe56e669301b3fef"")",linear_scaffolded,H,O,,,,,,,,,,,1,none,start,axis,linear,0,right,reverse,UMZCQ,1423381,21,16953
"ObjectId(""590a18edbe56e669301b3ff0"")",linear_scaffolded,4,,,,,,,,,,,,1,none,end,axis,linear,0,right,reverse,UMZCQ,1432063,22,7247
"ObjectId(""590a18edbe56e669301b3ff1"")",linear_scaffolded,A,C,E,F,G,H,I,L,,,,,0,none,duration,axis,linear,0,right,reverse,UMZCQ,1480297,23,46920
"ObjectId(""590a18edbe56e669301b3ff2"")",linear_scaffolded,8,,,,,,,,,,,,1,none,midpoint,axis,linear,0,right,reverse,UMZCQ,1510247,24,28590
"ObjectId(""590a18edbe56e669301b3ff3"")",linear_scaffolded,7,,,,,,,,,,,,1,none,start+overlap,axis,linear,0,right,reverse,UMZCQ,1527166,25,15593
"ObjectId(""590a18edbe56e669301b3ff4"")",linear_testing,A,B,C,E,J,,,,,,,,1,none,overlap+overlap,axis,linear,0,right,reverse,UMZCQ,1591606,26,62925
"ObjectId(""590a18edbe56e669301b3ff5"")",linear_testing,G,,,,,,,,,,,,1,none,meets,axis,linear,0,right,reverse,UMZCQ,1619950,27,26818
"ObjectId(""590a18edbe56e669301b3ff6"")",linear_testing,9,,,,,,,,,,,,1,none,start+duration,axis,linear,0,right,reverse,UMZCQ,1638904,28,17613
"ObjectId(""590a18edbe56e669301b3ff7"")",linear_testing,G,O,,,,,,,,,,,1,none,finishes,axis,linear,0,right,reverse,UMZCQ,1654478,29,14189
"ObjectId(""590a18edbe56e669301b3ff8"")",linear_testing,A,,,,,,,,,,,,1,none,during+overlap,axis,linear,0,right,reverse,UMZCQ,1697091,30,41305
"ObjectId(""590a18edbe56e669301b3ff9"")",linear_testing,F,M,O,,,,,,,,,,1,none,during,axis,linear,0,right,reverse,UMZCQ,1735659,31,37246
"ObjectId(""590a18edbe56e669301b3ffa"")",linear_testing,G,,,,,,,,,,,,1,none,starts+finishes,axis,linear,0,right,reverse,UMZCQ,1759236,32,22261
"ObjectId(""590a18edbe56e669301b3ffb"")",linear_testing,D,M,N,O,,,,,,,,,1,none,contain+duration,axis,linear,0,right,reverse,UMZCQ,1829685,33,69119
"ObjectId(""590a18edbe56e669301b3ffc"")",linear_testing,F,G,M,O,,,,,,,,,1,none,before+overlap,axis,linear,0,right,reverse,UMZCQ,1921232,34,89667
"ObjectId(""590a18edbe56e669301b3ffd"")",linear_testing,6,,,,,,,,,,,,1,none,starts,axis,linear,0,right,reverse,UMZCQ,1960476,35,37725
"ObjectId(""590a18edbe56e669301b3ffe"")",instructions_drawing,,,,,,,,,,,,,,,,,,0,right,reverse,UMZCQ,1972496,37,8577
"ObjectId(""590a18edbe56e669301b3fff"")",drawingTest,C1,,,,,,,,,,,,1,none,duration,jones,none,0,right,reverse,UMZCQ,1976996,38,3166
"ObjectId(""590a18edbe56e669301b4000"")",drawingTest,Chris,3-4pm,,,,,,,,,,,1,none,overlap,jones,none,0,right,reverse,UMZCQ,1983714,39,5380
"ObjectId(""590a18edbe56e669301b4001"")",triangular_scaffolded,G,,,,,,,,,,,,0,none,start,axis,triangular,0,right angle,reverse,HE7PK,52924,5,21869
"ObjectId(""590a18edbe56e669301b4002"")",triangular_scaffolded,,,,,,,,,,,,,0,none,end,axis,triangular,0,right angle,reverse,HE7PK,62206,6,8010
"ObjectId(""590a18edbe56e669301b4003"")",triangular_scaffolded,A,C,E,F,G,H,I,K,L,,,,1,none,duration,axis,triangular,0,right angle,reverse,HE7PK,101574,7,38094
"ObjectId(""590a18edbe56e669301b4004"")",triangular_scaffolded,11,,,,,,,,,,,,0,none,midpoint,axis,triangular,0,right angle,reverse,HE7PK,155307,8,52461
"ObjectId(""590a18edbe56e669301b4005"")",triangular_scaffolded,12,,,,,,,,,,,,0,none,start+overlap,axis,triangular,0,right angle,reverse,HE7PK,175076,9,18499
"ObjectId(""590a18edbe56e669301b4006"")",triangular_testing,F,M,,,,,,,,,,,0,none,meets,axis,triangular,0,right angle,reverse,HE7PK,225138,10,48784
"ObjectId(""590a18edbe56e669301b4007"")",triangular_testing,10,,,,,,,,,,,,0,none,start+duration,axis,triangular,0,right angle,reverse,HE7PK,247833,11,21415
"ObjectId(""590a18edbe56e669301b4008"")",triangular_testing,D,N,,,,,,,,,,,0,none,contain+duration,axis,triangular,0,right angle,reverse,HE7PK,275834,12,26733
"ObjectId(""590a18edbe56e669301b4009"")",triangular_testing,,,,,,,,,,,,,0,none,starts+finishes,axis,triangular,0,right angle,reverse,HE7PK,286337,13,9235
"ObjectId(""590a18edbe56e669301b400a"")",triangular_testing,F,,,,,,,,,,,,0,none,finishes,axis,triangular,0,right angle,reverse,HE7PK,299787,14,12185
"ObjectId(""590a18edbe56e669301b400b"")",triangular_testing,,,,,,,,,,,,,0,none,during+overlap,axis,triangular,0,right angle,reverse,HE7PK,314412,15,13353
"ObjectId(""590a18edbe56e669301b400c"")",triangular_testing,F,M,,,,,,,,,,,0,none,before+overlap,axis,triangular,0,right angle,reverse,HE7PK,356761,16,41082
"ObjectId(""590a18edbe56e669301b400d"")",triangular_testing,O,,,,,,,,,,,,0,none,during,axis,triangular,0,right angle,reverse,HE7PK,369937,17,11904
"ObjectId(""590a18edbe56e669301b400e"")",triangular_testing,4,,,,,,,,,,,,0,none,starts,axis,triangular,0,right angle,reverse,HE7PK,383178,18,11963
"ObjectId(""590a18edbe56e669301b400f"")",triangular_testing,B,C,J,,,,,,,,,,0,none,overlap+overlap,axis,triangular,0,right angle,reverse,HE7PK,409944,19,25501
"ObjectId(""590a18edbe56e669301b4010"")",linear_scaffolded,,,,,,,,,,,,,0,none,start,longmire,linear,0,right angle,reverse,HE7PK,422453,21,6796
"ObjectId(""590a18edbe56e669301b4011"")",linear_scaffolded,C,E,G,H,I,K,L,O,,,,,0,none,end,longmire,linear,0,right angle,reverse,HE7PK,468619,22,44894
"ObjectId(""590a18edbe56e669301b4012"")",linear_scaffolded,G,O,,,,,,,,,,,1,none,duration,longmire,linear,0,right angle,reverse,HE7PK,478259,23,8372
"ObjectId(""590a18edbe56e669301b4013"")",linear_scaffolded,4,,,,,,,,,,,,0,none,midpoint,longmire,linear,0,right angle,reverse,HE7PK,495838,24,16303
"ObjectId(""590a18edbe56e669301b4014"")",linear_scaffolded,A,,,,,,,,,,,,1,none,start+overlap,longmire,linear,0,right angle,reverse,HE7PK,514115,25,16998
"ObjectId(""590a18edbe56e669301b4015"")",linear_testing,A,B,D,F,,,,,,,,,1,none,start+duration,longmire,linear,0,right angle,reverse,HE7PK,542461,26,27076
"ObjectId(""590a18edbe56e669301b4016"")",linear_testing,,,,,,,,,,,,,0,none,before+overlap,longmire,linear,0,right angle,reverse,HE7PK,559334,27,15591
"ObjectId(""590a18edbe56e669301b4017"")",linear_testing,,,,,,,,,,,,,0,none,meets,longmire,linear,0,right angle,reverse,HE7PK,582248,28,21640
"ObjectId(""590a18edbe56e669301b4018"")",linear_testing,,,,,,,,,,,,,0,none,starts+finishes,longmire,linear,0,right angle,reverse,HE7PK,590890,29,7368
"ObjectId(""590a18edbe56e669301b4019"")",linear_testing,,,,,,,,,,,,,0,none,starts,longmire,linear,0,right angle,reverse,HE7PK,605965,30,13795
"ObjectId(""590a18edbe56e669301b401a"")",linear_testing,,,,,,,,,,,,,0,none,finishes,longmire,linear,0,right angle,reverse,HE7PK,629539,31,22304
"ObjectId(""590a18edbe56e669301b401b"")",linear_testing,G,O,,,,,,,,,,,1,none,contain+duration,longmire,linear,0,right angle,reverse,HE7PK,646129,32,15310
"ObjectId(""590a18edbe56e669301b401c"")",linear_testing,G,H,J,M,N,O,,,,,,,0,none,during,longmire,linear,0,right angle,reverse,HE7PK,700052,33,52646
"ObjectId(""590a18edbe56e669301b401d"")",linear_testing,A,,,,,,,,,,,,0,none,overlap+overlap,longmire,linear,0,right angle,reverse,HE7PK,724818,34,23499
"ObjectId(""590a18edbe56e669301b401e"")",linear_testing,,,,,,,,,,,,,0,none,during+overlap,longmire,linear,0,right angle,reverse,HE7PK,764303,35,38220
"ObjectId(""590a18edbe56e669301b401f"")",instructions_drawing,,,,,,,,,,,,,,,,,,0,right angle,reverse,HE7PK,777246,37,8975
"ObjectId(""590a18edbe56e669301b4020"")",drawingTest,C1,,,,,,,,,,,,1,none,duration,jones,none,0,right angle,reverse,HE7PK,783005,38,4479
"ObjectId(""590a18edbe56e669301b4021"")",drawingTest,Chris,3-4pm,,,,,,,,,,,1,none,overlap,jones,none,0,right angle,reverse,HE7PK,787620,39,3350