{"_id":{"$oid":"58c443f78dfa930004a807f9"},"data":[{"condition":1,"session":"juliet","experiment":"reverse","subject":"0YH05","internal_node_id":"0.0-0.0","time_elapsed":213051,"trial_index":0,"trial_type":"single-stim","block":"phone","key_press":13,"stimulus":"img/phone.png","rt":213042},{"condition":1,"session":"juliet","experiment":"reverse","subject":"0YH05","internal_node_id":"0.0-1.0","time_elapsed":221505,"trial_index":1,"trial_type":"html","block":"consent","url":"../views/src/external/consent.html","rt":7184},{"condition":1,"session":"juliet","experiment":"reverse","subject":"0YH05","internal_node_id":"0.0-2.0","time_elapsed":234434,"trial_index":2,"trial_type":"survey-text","block":"codes","responses":"{\"Q0\":\"JULIET\",\"Q1\":\"1\"}","rt":11921},{"condition":1,"session":"juliet","experiment":"reverse","subject":"0YH05","internal_node_id":"0.0-3.0","time_elapsed":245472,"trial_index":3,"trial_type":"html","block":"instructions_lab","url":"../views/src/external/instructions_lab.html","rt":9680},{"condition":1,"session":"juliet","experiment":"reverse","subject":"0YH05","internal_node_id":"0.0-4.0","time_elapsed":255484,"trial_index":4,"trial_type":"single-stim","block":"scenario-two","key_press":13,"stimulus":"img/longmire.png","rt":9010},{"block":"triangular_scaffolded","helps":0,"clicked":[["answer","clicked"],["A ","false"],["M ","false"],["D ","false"],["N ","false"],["B ","false"],["F ","false"],["H ","false"],["G ","false"],["O ","false"],["C ","false"],["J ","false"],["I ","false"],["E ","false"],["L ","false"],["K ","false"]],"answer":["C","D","L"],"correct":1,"scaffold":"describe-what","question":"start","scenario":"longmire","graph":"triangular","condition":1,"session":"juliet","experiment":"reverse","subject":"0YH05","internal_node_id":"0.0-5.0-0.0","time_elapsed":281730,"trial_index":5,"trial_type":"html","url":"../views/src/external/stimulus.html","rt":24580},{"block":"triangular_scaffolded","helps":0,"clicked":[["answer","clicked"],["A ","false"],["M ","false"],["D ","false"],["N ","false"],["B ","false"],["F ","false"],["H ","false"],["G ","false"],["O ","false"],["C ","false"],["J ","false"],["I ","false"],["E ","false"],["L ","false"],["K ","false"]],"answer":["H","J","K","L","M","N","O"],"correct":1,"scaffold":"describe-what","question":"end","scenario":"longmire","graph":"triangular","condition":1,"session":"juliet","experiment":"reverse","subject":"0YH05","internal_node_id":"0.0-5.0-1.0","time_elapsed":322565,"trial_index":6,"trial_type":"html","url":"../views/src/external/stimulus.html","rt":39582},{"block":"triangular_scaffolded","helps":0,"clicked":[["answer","clicked"],["A ","false"],["M ","false"],["D ","false"],["N ","false"],["B ","false"],["F ","false"],["H ","false"],["G ","false"],["O ","false"],["C ","false"],["J ","false"],["I ","false"],["E ","false"],["L ","false"],["K ","false"]],"answer":["G","O"],"correct":1,"scaffold":"describe-what","question":"duration","scenario":"longmire","graph":"triangular","condition":1,"session":"juliet","experiment":"reverse","subject":"0YH05","internal_node_id":"0.0-5.0-2.0","time_elapsed":352600,"trial_index":7,"trial_type":"html","url":"../views/src/external/stimulus.html","rt":28781},{"block":"triangular_scaffolded","helps":0,"clicked":[["answer","clicked"],["A ","false"],["M ","false"],["D ","false"],["N ","false"],["B ","false"],["F ","false"],["H ","false"],["G ","false"],["O ","false"],["C ","false"],["J ","false"],["I ","false"],["E ","false"],["L ","false"],["K ","false"]],"answer":["1"],"correct":1,"scaffold":"describe-what","question":"midpoint","scenario":"longmire","graph":"triangular","condition":1,"session":"juliet","experiment":"reverse","subject":"0YH05","internal_node_id":"0.0-5.0-3.0","time_elapsed":368391,"trial_index":8,"trial_type":"html","url":"../views/src/external/stimulus.html","rt":14532},{"block":"triangular_scaffolded","helps":0,"clicked":[["answer","clicked"],["A ","false"],["M ","false"],["D ","false"],["N ","false"],["B ","false"],["F ","false"],["H ","false"],["G ","false"],["O ","false"],["C ","false"],["J ","false"],["I ","false"],["E ","false"],["L ","false"],["K ","false"]],"answer":["A"],"correct":1,"scaffold":"describe-what","question":"start+overlap","scenario":"longmire","graph":"triangular","condition":1,"session":"juliet","experiment":"reverse","subject":"0YH05","internal_node_id":"0.0-5.0-4.0","time_elapsed":380580,"trial_index":9,"trial_type":"html","url":"../views/src/external/stimulus.html","rt":10940},{"block":"triangular_testing","helps":0,"answer":["4"],"clicked":[["answer","clicked"],["A ","false"],["M ","false"],["D ","false"],["N ","false"],["B ","false"],["F ","false"],["H ","false"],["G ","false"],["O ","false"],["C ","false"],["J ","false"],["I ","false"],["E ","false"],["L ","false"],["K ","false"]],"correct":0,"scaffold":"none","question":"finishes","scenario":"longmire","graph":"triangular","condition":1,"session":"juliet","experiment":"reverse","subject":"0YH05","internal_node_id":"0.0-6.0-6.0","time_elapsed":399146,"trial_index":10,"trial_type":"html","url":"../views/src/external/stimulus.html","rt":17317},{"block":"triangular_testing","helps":0,"answer":["6","8"],"clicked":[["answer","clicked"],["A ","false"],["M ","false"],["D ","false"],["N ","false"],["B ","false"],["F ","false"],["H ","false"],["G ","false"],["O ","false"],["C ","false"],["J ","false"],["I ","false"],["E ","false"],["L ","false"],["K ","false"]],"correct":1,"scaffold":"none","question":"starts","scenario":"longmire","graph":"triangular","condition":1,"session":"juliet","experiment":"reverse","subject":"0YH05","internal_node_id":"0.0-6.0-5.0","time_elapsed":415394,"trial_index":11,"trial_type":"html","url":"../views/src/external/stimulus.html","rt":15001},{"block":"triangular_testing","helps":0,"answer":["K","L"],"clicked":[["answer","clicked"],["A ","false"],["M ","false"],["D ","false"],["N ","false"],["B ","false"],["F ","false"],["H ","false"],["G ","false"],["O ","false"],["C ","false"],["J ","false"],["I ","false"],["E ","false"],["L ","false"],["K ","false"]],"correct":1,"scaffold":"none","question":"during+overlap","scenario":"longmire","graph":"triangular","condition":1,"session":"juliet","experiment":"reverse","subject":"0YH05","internal_node_id":"0.0-6.0-3.0","time_elapsed":446467,"trial_index":12,"trial_type":"html","url":"../views/src/external/stimulus.html","rt":29821},{"block":"triangular_testing","helps":0,"answer":["A","B","C","D","F","I"],"clicked":[["answer","clicked"],["A ","false"],["M ","false"],["D ","false"],["N ","false"],["B ","false"],["F ","false"],["H ","false"],["G ","false"],["O ","false"],["C ","false"],["J ","false"],["I ","false"],["E ","false"],["L ","false"],["K ","false"]],"correct":1,"scaffold":"none","question":"before+overlap","scenario":"longmire","graph":"triangular","condition":1,"session":"juliet","experiment":"reverse","subject":"0YH05","internal_node_id":"0.0-6.0-1.0","time_elapsed":473684,"trial_index":13,"trial_type":"html","url":"../views/src/external/stimulus.html","rt":25963},{"block":"triangular_testing","helps":0,"answer":["C"],"clicked":[["answer","clicked"],["A ","false"],["M ","false"],["D ","false"],["N ","false"],["B ","false"],["F ","false"],["H ","false"],["G ","false"],["O ","false"],["C ","false"],["J ","false"],["I ","false"],["E ","false"],["L ","false"],["K ","false"]],"correct":1,"scaffold":"none","question":"starts+finishes","scenario":"longmire","graph":"triangular","condition":1,"session":"juliet","experiment":"reverse","subject":"0YH05","internal_node_id":"0.0-6.0-9.0","time_elapsed":489428,"trial_index":14,"trial_type":"html","url":"../views/src/external/stimulus.html","rt":14490},{"block":"triangular_testing","helps":0,"answer":["A","B","D","F"],"clicked":[["answer","clicked"],["A ","false"],["M ","false"],["D ","false"],["N ","false"],["B ","false"],["F ","false"],["H ","false"],["G ","false"],["O ","false"],["C ","false"],["J ","false"],["I ","false"],["E ","false"],["L ","false"],["K ","false"]],"correct":1,"scaffold":"none","question":"start+duration","scenario":"longmire","graph":"triangular","condition":1,"session":"juliet","experiment":"reverse","subject":"0YH05","internal_node_id":"0.0-6.0-0.0","time_elapsed":517962,"trial_index":15,"trial_type":"html","url":"../views/src/external/stimulus.html","rt":27278},{"block":"triangular_testing","helps":0,"answer":["O"],"clicked":[["answer","clicked"],["A ","false"],["M ","false"],["D ","false"],["N ","false"],["B ","false"],["F ","false"],["H ","false"],["G ","false"],["O ","false"],["C ","false"],["J ","false"],["I ","false"],["E ","false"],["L ","false"],["K ","false"]],"correct":1,"scaffold":"none","question":"meets","scenario":"longmire","graph":"triangular","condition":1,"session":"juliet","experiment":"reverse","subject":"0YH05","internal_node_id":"0.0-6.0-8.0","time_elapsed":532546,"trial_index":16,"trial_type":"html","url":"../views/src/external/stimulus.html","rt":13323},{"block":"triangular_testing","helps":0,"answer":["G","O"],"clicked":[["answer","clicked"],["A ","false"],["M ","false"],["D ","false"],["N ","false"],["B ","false"],["F ","false"],["H ","false"],["G ","false"],["O ","false"],["C ","false"],["J ","false"],["I ","false"],["E ","false"],["L ","false"],["K ","false"]],"correct":1,"scaffold":"none","question":"contain+duration","scenario":"longmire","graph":"triangular","condition":1,"session":"juliet","experiment":"reverse","subject":"0YH05","internal_node_id":"0.0-6.0-4.0","time_elapsed":545304,"trial_index":17,"trial_type":"html","url":"../views/src/external/stimulus.html","rt":11504},{"block":"triangular_testing","helps":0,"answer":["A","M","N"],"clicked":[["answer","clicked"],["A ","false"],["M ","false"],["D ","false"],["N ","false"],["B ","false"],["F ","false"],["H ","false"],["G ","false"],["O ","false"],["C ","false"],["J ","false"],["I ","false"],["E ","false"],["L ","false"],["K ","false"]],"correct":1,"scaffold":"none","question":"overlap+overlap","scenario":"longmire","graph":"triangular","condition":1,"session":"juliet","experiment":"reverse","subject":"0YH05","internal_node_id":"0.0-6.0-2.0","time_elapsed":564794,"trial_index":18,"trial_type":"html","url":"../views/src/external/stimulus.html","rt":18236},{"block":"triangular_testing","helps":0,"answer":["A","B","C","D","E","F","G","H","I","J","K","L","O"],"clicked":[["answer","clicked"],["A ","false"],["M ","false"],["D ","false"],["N ","false"],["B ","false"],["F ","false"],["H ","false"],["G ","false"],["O ","false"],["C ","false"],["J ","false"],["I ","false"],["E ","false"],["L ","false"],["K ","false"]],"correct":0,"scaffold":"none","question":"during","scenario":"longmire","graph":"triangular","condition":1,"session":"juliet","experiment":"reverse","subject":"0YH05","internal_node_id":"0.0-6.0-7.0","time_elapsed":610253,"trial_index":19,"trial_type":"html","url":"../views/src/external/stimulus.html","rt":44209},{"condition":1,"session":"juliet","experiment":"reverse","subject":"0YH05","internal_node_id":"0.0-7.0","time_elapsed":625270,"trial_index":20,"trial_type":"single-stim","block":"scenario-one","key_press":13,"stimulus":"img/axis.png","rt":14011},{"block":"linear_scaffolded","helps":0,"clicked":[["answer","clicked"],["M ","false"],["B ","false"],["J ","false"],["N ","false"],["D ","false"],["O ","false"],["K ","false"],["C ","false"],["F ","false"],["I ","false"],["H ","false"],["G ","false"],["L ","false"],["E ","false"],["A ","false"]],"answer":["H","O"],"correct":1,"scaffold":"describe-what","question":"start","scenario":"axis","graph":"linear","condition":1,"session":"juliet","experiment":"reverse","subject":"0YH05","internal_node_id":"0.0-8.0-0.0","time_elapsed":650365,"trial_index":21,"trial_type":"html","url":"../views/src/external/stimulus.html","rt":23846},{"block":"linear_scaffolded","helps":0,"clicked":[["answer","clicked"],["M ","false"],["B ","false"],["J ","false"],["N ","false"],["D ","false"],["O ","false"],["K ","false"],["C ","false"],["F ","false"],["I ","false"],["H ","false"],["G ","false"],["L ","false"],["E ","false"],["A ","false"]],"answer":["4"],"correct":1,"scaffold":"describe-what","question":"end","scenario":"axis","graph":"linear","condition":1,"session":"juliet","experiment":"reverse","subject":"0YH05","internal_node_id":"0.0-8.0-1.0","time_elapsed":664942,"trial_index":22,"trial_type":"html","url":"../views/src/external/stimulus.html","rt":13330},{"block":"linear_scaffolded","helps":0,"clicked":[["answer","clicked"],["M ","false"],["B ","false"],["J ","false"],["N ","false"],["D ","false"],["O ","false"],["K ","false"],["C ","false"],["F ","false"],["I ","false"],["H ","false"],["G ","false"],["L ","false"],["E ","false"],["A ","false"]],"answer":["A","C","E","F","G","H","I","K","L"],"correct":1,"scaffold":"describe-what","question":"duration","scenario":"axis","graph":"linear","condition":1,"session":"juliet","experiment":"reverse","subject":"0YH05","internal_node_id":"0.0-8.0-2.0","time_elapsed":718912,"trial_index":23,"trial_type":"html","url":"../views/src/external/stimulus.html","rt":52713},{"block":"linear_scaffolded","helps":0,"clicked":[["answer","clicked"],["M ","false"],["B ","false"],["J ","false"],["N ","false"],["D ","false"],["O ","false"],["K ","false"],["C ","false"],["F ","false"],["I ","false"],["H ","false"],["G ","false"],["L ","false"],["E ","false"],["A ","false"]],"answer":["8"],"correct":1,"scaffold":"describe-what","question":"midpoint","scenario":"axis","graph":"linear","condition":1,"session":"juliet","experiment":"reverse","subject":"0YH05","internal_node_id":"0.0-8.0-3.0","time_elapsed":741511,"trial_index":24,"trial_type":"html","url":"../views/src/external/stimulus.html","rt":21344},{"block":"linear_scaffolded","helps":0,"clicked":[["answer","clicked"],["M ","false"],["B ","false"],["J ","false"],["N ","false"],["D ","false"],["O ","false"],["K ","false"],["C ","false"],["F ","false"],["I ","false"],["H ","false"],["G ","false"],["L ","false"],["E ","false"],["A ","false"]],"answer":["8"],"correct":0,"scaffold":"describe-what","question":"start+overlap","scenario":"axis","graph":"linear","condition":1,"session":"juliet","experiment":"reverse","subject":"0YH05","internal_node_id":"0.0-8.0-4.0","time_elapsed":759071,"trial_index":25,"trial_type":"html","url":"../views/src/external/stimulus.html","rt":16314},{"block":"linear_testing","helps":0,"clicked":[["answer","clicked"],["M ","false"],["B ","false"],["J ","false"],["N ","false"],["D ","false"],["O ","false"],["K ","false"],["C ","false"],["F ","false"],["I ","false"],["H ","false"],["G ","false"],["L ","false"],["E ","false"],["A ","false"]],"answer":["B","C","J"],"correct":0,"scaffold":"none","question":"overlap+overlap","scenario":"axis","graph":"linear","condition":1,"session":"juliet","experiment":"reverse","subject":"0YH05","internal_node_id":"0.0-9.0-2.0","time_elapsed":785955,"trial_index":26,"trial_type":"html","url":"../views/src/external/stimulus.html","rt":25637},{"block":"linear_testing","helps":0,"clicked":[["answer","clicked"],["M ","false"],["B ","false"],["J ","false"],["N ","false"],["D ","false"],["O ","false"],["K ","false"],["C ","false"],["F ","false"],["I ","false"],["H ","false"],["G ","false"],["L ","false"],["E ","false"],["A ","false"]],"answer":["6"],"correct":1,"scaffold":"none","question":"starts","scenario":"axis","graph":"linear","condition":1,"session":"juliet","experiment":"reverse","subject":"0YH05","internal_node_id":"0.0-9.0-5.0","time_elapsed":814042,"trial_index":27,"trial_type":"html","url":"../views/src/external/stimulus.html","rt":26831},{"block":"linear_testing","helps":0,"clicked":[["answer","clicked"],["M ","false"],["B ","false"],["J ","false"],["N ","false"],["D ","false"],["O ","false"],["K ","false"],["C ","false"],["F ","false"],["I ","false"],["H ","false"],["G ","false"],["L ","false"],["E ","false"],["A ","false"]],"answer":["G"],"correct":1,"scaffold":"none","question":"starts+finishes","scenario":"axis","graph":"linear","condition":1,"session":"juliet","experiment":"reverse","subject":"0YH05","internal_node_id":"0.0-9.0-9.0","time_elapsed":829684,"trial_index":28,"trial_type":"html","url":"../views/src/external/stimulus.html","rt":14398},{"block":"linear_testing","helps":0,"clicked":[["answer","clicked"],["M ","false"],["B ","false"],["J ","false"],["N ","false"],["D ","false"],["O ","false"],["K ","false"],["C ","false"],["F ","false"],["I ","false"],["H ","false"],["G ","false"],["L ","false"],["E ","false"],["A ","false"]],"answer":["G"],"correct":1,"scaffold":"none","question":"meets","scenario":"axis","graph":"linear","condition":1,"session":"juliet","experiment":"reverse","subject":"0YH05","internal_node_id":"0.0-9.0-8.0","time_elapsed":851966,"trial_index":29,"trial_type":"html","url":"../views/src/external/stimulus.html","rt":21037},{"block":"linear_testing","helps":0,"clicked":[["answer","clicked"],["M ","false"],["B ","false"],["J ","false"],["N ","false"],["D ","false"],["O ","false"],["K ","false"],["C ","false"],["F ","false"],["I ","false"],["H ","false"],["G ","false"],["L ","false"],["E ","false"],["A ","false"]],"answer":["F","M","O"],"correct":1,"scaffold":"none","question":"during","scenario":"axis","graph":"linear","condition":1,"session":"juliet","experiment":"reverse","subject":"0YH05","internal_node_id":"0.0-9.0-7.0","time_elapsed":867917,"trial_index":30,"trial_type":"html","url":"../views/src/external/stimulus.html","rt":14706},{"block":"linear_testing","helps":0,"clicked":[["answer","clicked"],["M ","false"],["B ","false"],["J ","false"],["N ","false"],["D ","false"],["O ","false"],["K ","false"],["C ","false"],["F ","false"],["I ","false"],["H ","false"],["G ","false"],["L ","false"],["E ","false"],["A ","false"]],"answer":["G","O"],"correct":1,"scaffold":"none","question":"finishes","scenario":"axis","graph":"linear","condition":1,"session":"juliet","experiment":"reverse","subject":"0YH05","internal_node_id":"0.0-9.0-6.0","time_elapsed":884583,"trial_index":31,"trial_type":"html","url":"../views/src/external/stimulus.html","rt":15421},{"block":"linear_testing","helps":0,"clicked":[["answer","clicked"],["M ","false"],["B ","false"],["J ","false"],["N ","false"],["D ","false"],["O ","false"],["K ","false"],["C ","false"],["F ","false"],["I ","false"],["H ","false"],["G ","false"],["L ","false"],["E ","false"],["A ","false"]],"answer":["9"],"correct":1,"scaffold":"none","question":"start+duration","scenario":"axis","graph":"linear","condition":1,"session":"juliet","experiment":"reverse","subject":"0YH05","internal_node_id":"0.0-9.0-0.0","time_elapsed":899097,"trial_index":32,"trial_type":"html","url":"../views/src/external/stimulus.html","rt":13267},{"block":"linear_testing","helps":0,"clicked":[["answer","clicked"],["M ","false"],["B ","false"],["J ","false"],["N ","false"],["D ","false"],["O ","false"],["K ","false"],["C ","false"],["F ","false"],["I ","false"],["H ","false"],["G ","false"],["L ","false"],["E ","false"],["A ","false"]],"answer":["F","G","M","O"],"correct":1,"scaffold":"none","question":"before+overlap","scenario":"axis","graph":"linear","condition":1,"session":"juliet","experiment":"reverse","subject":"0YH05","internal_node_id":"0.0-9.0-1.0","time_elapsed":941827,"trial_index":33,"trial_type":"html","url":"../views/src/external/stimulus.html","rt":39515},{"block":"linear_testing","helps":0,"clicked":[["answer","clicked"],["M ","false"],["B ","false"],["J ","false"],["N ","false"],["D ","false"],["O ","false"],["K ","false"],["C ","false"],["F ","false"],["I ","false"],["H ","false"],["G ","false"],["L ","false"],["E ","false"],["A ","false"]],"answer":["A"],"correct":1,"scaffold":"none","question":"during+overlap","scenario":"axis","graph":"linear","condition":1,"session":"juliet","experiment":"reverse","subject":"0YH05","internal_node_id":"0.0-9.0-3.0","time_elapsed":988811,"trial_index":34,"trial_type":"html","url":"../views/src/external/stimulus.html","rt":45736},{"block":"linear_testing","helps":0,"clicked":[["answer","clicked"],["M ","false"],["B ","false"],["J ","false"],["N ","false"],["D ","false"],["O ","false"],["K ","false"],["C ","false"],["F ","false"],["I ","false"],["H ","false"],["G ","false"],["L ","false"],["E ","false"],["A ","false"]],"answer":["D","M","N","O"],"correct":1,"scaffold":"none","question":"contain+duration","scenario":"axis","graph":"linear","condition":1,"session":"juliet","experiment":"reverse","subject":"0YH05","internal_node_id":"0.0-9.0-4.0","time_elapsed":1019169,"trial_index":35,"trial_type":"html","url":"../views/src/external/stimulus.html","rt":29108},{"condition":1,"session":"juliet","experiment":"reverse","subject":"0YH05","internal_node_id":"0.0-10.0","time_elapsed":1036027,"trial_index":36,"trial_type":"single-stim","block":"scenario-draw","key_press":13,"stimulus":"img/jones.png","rt":15852},{"condition":1,"session":"juliet","experiment":"reverse","subject":"0YH05","internal_node_id":"0.0-11.0","time_elapsed":1478645,"trial_index":37,"trial_type":"html","block":"instructions_drawing","url":"../views/src/external/instructions_draw.html","rt":441470},{"block":"drawingTest","clicked":[["answer","clicked"]],"answer":["C1"],"correct":1,"scaffold":"none","question":"duration","scenario":"jones","graph":"none","condition":1,"session":"juliet","experiment":"reverse","subject":"0YH05","internal_node_id":"0.0-12.0","time_elapsed":1606220,"trial_index":38,"trial_type":"html","url":"../views/src/external/stimulus.html","rt":126061},{"block":"drawingTest","clicked":[["answer","clicked"]],"answer":["Chris","3-4pm"],"correct":1,"scaffold":"none","question":"overlap","scenario":"jones","graph":"none","condition":1,"session":"juliet","experiment":"reverse","subject":"0YH05","internal_node_id":"0.0-13.0","time_elapsed":1644188,"trial_index":39,"trial_type":"html","url":"../views/src/external/stimulus.html","rt":36630},{"condition":1,"session":"juliet","experiment":"reverse","subject":"0YH05","internal_node_id":"0.0-14.0","time_elapsed":1662933,"trial_index":40,"trial_type":"survey-text","block":"demo-1","responses":"{\"Q0\":\"19\",\"Q1\":\"China\"}","rt":17741},{"condition":1,"session":"juliet","experiment":"reverse","subject":"0YH05","internal_node_id":"0.0-15.0","time_elapsed":1687705,"trial_index":41,"trial_type":"survey-multi-choice","block":"demo-2","responses":"{\"Q0\":\"English\",\"Q1\":\"Second\",\"Q2\":\"Biomedical \u0026 Health Sciences\",\"Q3\":\"Female\",\"Q4\":\"the first one (linear\"}","rt":23758},{"condition":1,"session":"juliet","experiment":"reverse","subject":"0YH05","internal_node_id":"0.0-16.0","time_elapsed":1694999,"trial_index":42,"trial_type":"html","block":"debrief","url":"../views/src/external/debrief.html","rt":6063}],"__v":0}
{"_id":{"$oid":"58c4443c8dfa930004a807fa"},"data":[{"condition":4,"session":"juliet","experiment":"experiment","subject":"4UBJB","internal_node_id":"0.0-0.0","time_elapsed":166485,"trial_index":0,"trial_type":"single-stim","block":"phone","key_press":13,"stimulus":"img/phone.png","rt":166481},{"condition":4,"session":"juliet","experiment":"experiment","subject":"4UBJB","internal_node_id":"0.0-1.0","time_elapsed":184948,"trial_index":1,"trial_type":"html","block":"consent","url":"../views/src/external/consent.html","rt":17189},{"condition":4,"session":"juliet","experiment":"experiment","subject":"4UBJB","internal_node_id":"0.0-2.0","time_elapsed":205635,"trial_index":2,"trial_type":"survey-text","block":"codes","responses":"{\"Q0\":\"JULIET\",\"Q1\":\"4\"}","rt":19674},{"condition":4,"session":"juliet","experiment":"experiment","subject":"4UBJB","internal_node_id":"0.0-3.0","time_elapsed":214150,"trial_index":3,"trial_type":"html","block":"instructions_lab","url":"../views/src/external/instructions_lab.html","rt":7092},{"condition":4,"session":"juliet","experiment":"experiment","subject":"4UBJB","internal_node_id":"0.0-4.0","time_elapsed":226093,"trial_index":4,"trial_type":"single-stim","block":"scenario-one","key_press":13,"stimulus":"img/longmire.png","rt":10940},{"block":"linear_scaffolded","helps":0,"clicked":[["answer","clicked"],["A ","false"],["M ","false"],["D ","false"],["N ","false"],["B ","false"],["F ","false"],["H ","false"],["G ","false"],["O ","false"],["C ","false"],["J ","false"],["I ","false"],["E ","false"],["L ","false"],["K ","false"]],"answer":["D"],"correct":0,"scaffold":"show-interactive","question":"start","scenario":"longmire","graph":"linear","condition":4,"session":"juliet","experiment":"experiment","subject":"4UBJB","internal_node_id":"0.0-5.0-0.0","time_elapsed":245104,"trial_index":5,"trial_type":"html","url":"../views/src/external/stimulus.html","rt":17545},{"block":"linear_scaffolded","helps":0,"clicked":[["answer","clicked"],["A ","false"],["M ","false"],["D ","false"],["N ","false"],["B ","false"],["F ","false"],["H ","false"],["G ","false"],["O ","false"],["C ","false"],["J ","false"],["I ","false"],["E ","false"],["L ","false"],["K ","false"]],"answer":["K","L"],"correct":0,"scaffold":"show-interactive","question":"end","scenario":"longmire","graph":"linear","condition":4,"session":"juliet","experiment":"experiment","subject":"4UBJB","internal_node_id":"0.0-5.0-1.0","time_elapsed":263114,"trial_index":6,"trial_type":"html","url":"../views/src/external/stimulus.html","rt":16758},{"block":"linear_scaffolded","helps":0,"clicked":[["answer","clicked"],["A ","false"],["M ","false"],["D ","false"],["N ","false"],["B ","false"],["F ","false"],["H ","false"],["G ","false"],["O ","false"],["C ","false"],["J ","false"],["I ","false"],["E ","false"],["L ","false"],["K ","false"]],"answer":["G","O"],"correct":1,"scaffold":"show-interactive","question":"duration","scenario":"longmire","graph":"linear","condition":4,"session":"juliet","experiment":"experiment","subject":"4UBJB","internal_node_id":"0.0-5.0-2.0","time_elapsed":295079,"trial_index":7,"trial_type":"html","url":"../views/src/external/stimulus.html","rt":30714},{"block":"linear_scaffolded","helps":0,"clicked":[["answer","clicked"],["A ","false"],["M ","false"],["D ","false"],["N ","false"],["B ","false"],["F ","false"],["H ","false"],["G ","false"],["O ","false"],["C ","false"],["J ","false"],["I ","false"],["E ","false"],["L ","false"],["K ","false"]],"answer":["1"],"correct":1,"scaffold":"show-interactive","question":"midpoint","scenario":"longmire","graph":"linear","condition":4,"session":"juliet","experiment":"experiment","subject":"4UBJB","internal_node_id":"0.0-5.0-3.0","time_elapsed":310935,"trial_index":8,"trial_type":"html","url":"../views/src/external/stimulus.html","rt":14606},{"block":"linear_scaffolded","helps":0,"clicked":[["answer","clicked"],["A ","false"],["M ","false"],["D ","false"],["N ","false"],["B ","false"],["F ","false"],["H ","false"],["G ","false"],["O ","false"],["C ","false"],["J ","false"],["I ","false"],["E ","false"],["L ","false"],["K ","false"]],"answer":["A"],"correct":1,"scaffold":"show-interactive","question":"start+overlap","scenario":"longmire","graph":"linear","condition":4,"session":"juliet","experiment":"experiment","subject":"4UBJB","internal_node_id":"0.0-5.0-4.0","time_elapsed":324042,"trial_index":9,"trial_type":"html","url":"../views/src/external/stimulus.html","rt":11851},{"block":"linear_testing","helps":0,"clicked":[["answer","clicked"],["A ","false"],["M ","false"],["D ","false"],["N ","false"],["B ","false"],["F ","false"],["H ","false"],["G ","false"],["O ","false"],["C ","false"],["J ","false"],["I ","false"],["E ","false"],["L ","false"],["K ","false"]],"answer":["B","C","D","F","G","H","J","K","L","O"],"correct":0,"scaffold":"none","question":"during","scenario":"longmire","graph":"linear","condition":4,"session":"juliet","experiment":"experiment","subject":"4UBJB","internal_node_id":"0.0-6.0-7.0","time_elapsed":406032,"trial_index":10,"trial_type":"html","url":"../views/src/external/stimulus.html","rt":80739},{"block":"linear_testing","helps":0,"clicked":[["answer","clicked"],["A ","false"],["M ","false"],["D ","false"],["N ","false"],["B ","false"],["F ","false"],["H ","false"],["G ","false"],["O ","false"],["C ","false"],["J ","false"],["I ","false"],["E ","false"],["L ","false"],["K ","false"]],"answer":["B","F"],"correct":0,"scaffold":"none","question":"contain+duration","scenario":"longmire","graph":"linear","condition":4,"session":"juliet","experiment":"experiment","subject":"4UBJB","internal_node_id":"0.0-6.0-4.0","time_elapsed":458911,"trial_index":11,"trial_type":"html","url":"../views/src/external/stimulus.html","rt":51515},{"block":"linear_testing","helps":0,"clicked":[["answer","clicked"],["A ","false"],["M ","false"],["D ","false"],["N ","false"],["B ","false"],["F ","false"],["H ","false"],["G ","false"],["O ","false"],["C ","false"],["J ","false"],["I ","false"],["E ","false"],["L ","false"],["K ","false"]],"answer":["4"],"correct":0,"scaffold":"none","question":"finishes","scenario":"longmire","graph":"linear","condition":4,"session":"juliet","experiment":"experiment","subject":"4UBJB","internal_node_id":"0.0-6.0-6.0","time_elapsed":498707,"trial_index":12,"trial_type":"html","url":"../views/src/external/stimulus.html","rt":38554},{"block":"linear_testing","helps":0,"clicked":[["answer","clicked"],["A ","false"],["M ","false"],["D ","false"],["N ","false"],["B ","false"],["F ","false"],["H ","false"],["G ","false"],["O ","false"],["C ","false"],["J ","false"],["I ","false"],["E ","false"],["L ","false"],["K ","false"]],"answer":["A","M","N"],"correct":1,"scaffold":"none","question":"overlap+overlap","scenario":"longmire","graph":"linear","condition":4,"session":"juliet","experiment":"experiment","subject":"4UBJB","internal_node_id":"0.0-6.0-2.0","time_elapsed":540110,"trial_index":13,"trial_type":"html","url":"../views/src/external/stimulus.html","rt":40133},{"block":"linear_testing","helps":0,"clicked":[["answer","clicked"],["A ","false"],["M ","false"],["D ","false"],["N ","false"],["B ","false"],["F ","false"],["H ","false"],["G ","false"],["O ","false"],["C ","false"],["J ","false"],["I ","false"],["E ","false"],["L ","false"],["K ","false"]],"answer":["A","C","I","M"],"correct":0,"scaffold":"none","question":"before+overlap","scenario":"longmire","graph":"linear","condition":4,"session":"juliet","experiment":"experiment","subject":"4UBJB","internal_node_id":"0.0-6.0-1.0","time_elapsed":580417,"trial_index":14,"trial_type":"html","url":"../views/src/external/stimulus.html","rt":39057},{"block":"linear_testing","helps":0,"clicked":[["answer","clicked"],["A ","false"],["M ","false"],["D ","false"],["N ","false"],["B ","false"],["F ","false"],["H ","false"],["G ","false"],["O ","false"],["C ","false"],["J ","false"],["I ","false"],["E ","false"],["L ","false"],["K ","false"]],"answer":["E","I"],"correct":0,"scaffold":"none","question":"during+overlap","scenario":"longmire","graph":"linear","condition":4,"session":"juliet","experiment":"experiment","subject":"4UBJB","internal_node_id":"0.0-6.0-3.0","time_elapsed":650472,"trial_index":15,"trial_type":"html","url":"../views/src/external/stimulus.html","rt":68792},{"block":"linear_testing","helps":0,"clicked":[["answer","clicked"],["A ","false"],["M ","false"],["D ","false"],["N ","false"],["B ","false"],["F ","false"],["H ","false"],["G ","false"],["O ","false"],["C ","false"],["J ","false"],["I ","false"],["E ","false"],["L ","false"],["K ","false"]],"answer":["A","B","D","F"],"correct":1,"scaffold":"none","question":"start+duration","scenario":"longmire","graph":"linear","condition":4,"session":"juliet","experiment":"experiment","subject":"4UBJB","internal_node_id":"0.0-6.0-0.0","time_elapsed":689727,"trial_index":16,"trial_type":"html","url":"../views/src/external/stimulus.html","rt":37757},{"block":"linear_testing","helps":0,"clicked":[["answer","clicked"],["A ","false"],["M ","false"],["D ","false"],["N ","false"],["B ","false"],["F ","false"],["H ","false"],["G ","false"],["O ","false"],["C ","false"],["J ","false"],["I ","false"],["E ","false"],["L ","false"],["K ","false"]],"answer":["C"],"correct":1,"scaffold":"none","question":"starts+finishes","scenario":"longmire","graph":"linear","condition":4,"session":"juliet","experiment":"experiment","subject":"4UBJB","internal_node_id":"0.0-6.0-9.0","time_elapsed":713924,"trial_index":17,"trial_type":"html","url":"../views/src/external/stimulus.html","rt":22939},{"block":"linear_testing","helps":0,"clicked":[["answer","clicked"],["A ","false"],["M ","false"],["D ","false"],["N ","false"],["B ","false"],["F ","false"],["H ","false"],["G ","false"],["O ","false"],["C ","false"],["J ","false"],["I ","false"],["E ","false"],["L ","false"],["K ","false"]],"answer":["6","8"],"correct":1,"scaffold":"none","question":"starts","scenario":"longmire","graph":"linear","condition":4,"session":"juliet","experiment":"experiment","subject":"4UBJB","internal_node_id":"0.0-6.0-5.0","time_elapsed":750585,"trial_index":18,"trial_type":"html","url":"../views/src/external/stimulus.html","rt":35404},{"block":"linear_testing","helps":0,"clicked":[["answer","clicked"],["A ","false"],["M ","false"],["D ","false"],["N ","false"],["B ","false"],["F ","false"],["H ","false"],["G ","false"],["O ","false"],["C ","false"],["J ","false"],["I ","false"],["E ","false"],["L ","false"],["K ","false"]],"answer":["O"],"correct":1,"scaffold":"none","question":"meets","scenario":"longmire","graph":"linear","condition":4,"session":"juliet","experiment":"experiment","subject":"4UBJB","internal_node_id":"0.0-6.0-8.0","time_elapsed":774583,"trial_index":19,"trial_type":"html","url":"../views/src/external/stimulus.html","rt":22745},{"condition":4,"session":"juliet","experiment":"experiment","subject":"4UBJB","internal_node_id":"0.0-7.0","time_elapsed":784696,"trial_index":20,"trial_type":"single-stim","block":"scenario-two","key_press":13,"stimulus":"img/axis.png","rt":9108},{"block":"triangular_scaffolded","helps":0,"clicked":[["answer","clicked"],["M ","false"],["B ","false"],["J ","false"],["N ","false"],["D ","false"],["O ","false"],["K ","false"],["C ","false"],["F ","false"],["I ","false"],["H ","false"],["G ","false"],["L ","false"],["E ","false"],["A ","false"]],"answer":["H","O"],"correct":1,"scaffold":"show-interactive","question":"start","scenario":"axis","graph":"triangular","condition":4,"session":"juliet","experiment":"experiment","subject":"4UBJB","internal_node_id":"0.0-8.0-0.0","time_elapsed":834873,"trial_index":21,"trial_type":"html","url":"../views/src/external/stimulus.html","rt":48924},{"block":"triangular_scaffolded","helps":0,"clicked":[["answer","clicked"],["M ","false"],["B ","false"],["J ","false"],["N ","false"],["D ","false"],["O ","false"],["K ","false"],["C ","false"],["F ","false"],["I ","false"],["H ","false"],["G ","false"],["L ","false"],["E ","false"],["A ","false"]],"answer":["4"],"correct":1,"scaffold":"show-interactive","question":"end","scenario":"axis","graph":"triangular","condition":4,"session":"juliet","experiment":"experiment","subject":"4UBJB","internal_node_id":"0.0-8.0-1.0","time_elapsed":844298,"trial_index":22,"trial_type":"html","url":"../views/src/external/stimulus.html","rt":8172},{"block":"triangular_scaffolded","helps":0,"clicked":[["answer","clicked"],["M ","false"],["B ","false"],["J ","false"],["N ","false"],["D ","false"],["O ","false"],["K ","false"],["C ","false"],["F ","false"],["I ","false"],["H ","false"],["G ","false"],["L ","false"],["E ","false"],["A ","false"]],"answer":["A","C","E","F","G","H","I"],"correct":0,"scaffold":"show-interactive","question":"duration","scenario":"axis","graph":"triangular","condition":4,"session":"juliet","experiment":"experiment","subject":"4UBJB","internal_node_id":"0.0-8.0-2.0","time_elapsed":899269,"trial_index":23,"trial_type":"html","url":"../views/src/external/stimulus.html","rt":53696},{"block":"triangular_scaffolded","helps":0,"clicked":[["answer","clicked"],["M ","false"],["B ","false"],["J ","false"],["N ","false"],["D ","false"],["O ","false"],["K ","false"],["C ","false"],["F ","false"],["I ","false"],["H ","false"],["G ","false"],["L ","false"],["E ","false"],["A ","false"]],"answer":["8"],"correct":1,"scaffold":"show-interactive","question":"midpoint","scenario":"axis","graph":"triangular","condition":4,"session":"juliet","experiment":"experiment","subject":"4UBJB","internal_node_id":"0.0-8.0-3.0","time_elapsed":948951,"trial_index":24,"trial_type":"html","url":"../views/src/external/stimulus.html","rt":48426},{"block":"triangular_scaffolded","helps":0,"clicked":[["answer","clicked"],["M ","false"],["B ","false"],["J ","false"],["N ","false"],["D ","false"],["O ","false"],["K ","false"],["C ","false"],["F ","false"],["I ","false"],["H ","false"],["G ","false"],["L ","false"],["E ","false"],["A ","false"]],"answer":["7"],"correct":1,"scaffold":"show-interactive","question":"start+overlap","scenario":"axis","graph":"triangular","condition":4,"session":"juliet","experiment":"experiment","subject":"4UBJB","internal_node_id":"0.0-8.0-4.0","time_elapsed":1007247,"trial_index":25,"trial_type":"html","url":"../views/src/external/stimulus.html","rt":57029},{"block":"triangular_testing","helps":0,"answer":["A"],"clicked":[["answer","clicked"],["M ","false"],["B ","false"],["J ","false"],["N ","false"],["D ","false"],["O ","false"],["K ","false"],["C ","false"],["F ","false"],["I ","false"],["H ","false"],["G ","false"],["L ","false"],["E ","false"],["A ","false"]],"correct":1,"scaffold":"none","question":"during+overlap","scenario":"axis","graph":"triangular","condition":4,"session":"juliet","experiment":"experiment","subject":"4UBJB","internal_node_id":"0.0-9.0-3.0","time_elapsed":1051888,"trial_index":26,"trial_type":"html","url":"../views/src/external/stimulus.html","rt":43383},{"block":"triangular_testing","helps":0,"answer":["9"],"clicked":[["answer","clicked"],["M ","false"],["B ","false"],["J ","false"],["N ","false"],["D ","false"],["O ","false"],["K ","false"],["C ","false"],["F ","false"],["I ","false"],["H ","false"],["G ","false"],["L ","false"],["E ","false"],["A ","false"]],"correct":1,"scaffold":"none","question":"start+duration","scenario":"axis","graph":"triangular","condition":4,"session":"juliet","experiment":"experiment","subject":"4UBJB","internal_node_id":"0.0-9.0-0.0","time_elapsed":1079526,"trial_index":27,"trial_type":"html","url":"../views/src/external/stimulus.html","rt":26371},{"block":"triangular_testing","helps":0,"answer":["F","G","M"],"clicked":[["answer","clicked"],["M ","false"],["B ","false"],["J ","false"],["N ","false"],["D ","false"],["O ","false"],["K ","false"],["C ","false"],["F ","false"],["I ","false"],["H ","false"],["G ","false"],["L ","false"],["E ","false"],["A ","false"]],"correct":0,"scaffold":"none","question":"before+overlap","scenario":"axis","graph":"triangular","condition":4,"session":"juliet","experiment":"experiment","subject":"4UBJB","internal_node_id":"0.0-9.0-1.0","time_elapsed":1118901,"trial_index":28,"trial_type":"html","url":"../views/src/external/stimulus.html","rt":38122},{"block":"triangular_testing","helps":0,"answer":["B","J"],"clicked":[["answer","clicked"],["M ","false"],["B ","false"],["J ","false"],["N ","false"],["D ","false"],["O ","false"],["K ","false"],["C ","false"],["F ","false"],["I ","false"],["H ","false"],["G ","false"],["L ","false"],["E ","false"],["A ","false"]],"correct":0,"scaffold":"none","question":"overlap+overlap","scenario":"axis","graph":"triangular","condition":4,"session":"juliet","experiment":"experiment","subject":"4UBJB","internal_node_id":"0.0-9.0-2.0","time_elapsed":1133342,"trial_index":29,"trial_type":"html","url":"../views/src/external/stimulus.html","rt":13187},{"block":"triangular_testing","helps":0,"answer":["G"],"clicked":[["answer","clicked"],["M ","false"],["B ","false"],["J ","false"],["N ","false"],["D ","false"],["O ","false"],["K ","false"],["C ","false"],["F ","false"],["I ","false"],["H ","false"],["G ","false"],["L ","false"],["E ","false"],["A ","false"]],"correct":1,"scaffold":"none","question":"starts+finishes","scenario":"axis","graph":"triangular","condition":4,"session":"juliet","experiment":"experiment","subject":"4UBJB","internal_node_id":"0.0-9.0-9.0","time_elapsed":1145239,"trial_index":30,"trial_type":"html","url":"../views/src/external/stimulus.html","rt":10642},{"block":"triangular_testing","helps":0,"answer":["F","G","H","M","O"],"clicked":[["answer","clicked"],["M ","false"],["B ","false"],["J ","false"],["N ","false"],["D ","false"],["O ","false"],["K ","false"],["C ","false"],["F ","false"],["I ","false"],["H ","false"],["G ","false"],["L ","false"],["E ","false"],["A ","false"]],"correct":0,"scaffold":"none","question":"meets","scenario":"axis","graph":"triangular","condition":4,"session":"juliet","experiment":"experiment","subject":"4UBJB","internal_node_id":"0.0-9.0-8.0","time_elapsed":1200141,"trial_index":31,"trial_type":"html","url":"../views/src/external/stimulus.html","rt":53650},{"block":"triangular_testing","helps":0,"answer":["G","O"],"clicked":[["answer","clicked"],["M ","false"],["B ","false"],["J ","false"],["N ","false"],["D ","false"],["O ","false"],["K ","false"],["C ","false"],["F ","false"],["I ","false"],["H ","false"],["G ","false"],["L ","false"],["E ","false"],["A ","false"]],"correct":1,"scaffold":"none","question":"finishes","scenario":"axis","graph":"triangular","condition":4,"session":"juliet","experiment":"experiment","subject":"4UBJB","internal_node_id":"0.0-9.0-6.0","time_elapsed":1220777,"trial_index":32,"trial_type":"html","url":"../views/src/external/stimulus.html","rt":19385},{"block":"triangular_testing","helps":0,"answer":["D","M","N","O"],"clicked":[["answer","clicked"],["M ","false"],["B ","false"],["J ","false"],["N ","false"],["D ","false"],["O ","false"],["K ","false"],["C ","false"],["F ","false"],["I ","false"],["H ","false"],["G ","false"],["L ","false"],["E ","false"],["A ","false"]],"correct":1,"scaffold":"none","question":"contain+duration","scenario":"axis","graph":"triangular","condition":4,"session":"juliet","experiment":"experiment","subject":"4UBJB","internal_node_id":"0.0-9.0-4.0","time_elapsed":1246673,"trial_index":33,"trial_type":"html","url":"../views/src/external/stimulus.html","rt":24642},{"block":"triangular_testing","helps":0,"answer":["6"],"clicked":[["answer","clicked"],["M ","false"],["B ","false"],["J ","false"],["N ","false"],["D ","false"],["O ","false"],["K ","false"],["C ","false"],["F ","false"],["I ","false"],["H ","false"],["G ","false"],["L ","false"],["E ","false"],["A ","false"]],"correct":1,"scaffold":"none","question":"starts","scenario":"axis","graph":"triangular","condition":4,"session":"juliet","experiment":"experiment","subject":"4UBJB","internal_node_id":"0.0-9.0-5.0","time_elapsed":1272941,"trial_index":34,"trial_type":"html","url":"../views/src/external/stimulus.html","rt":25015},{"block":"triangular_testing","helps":0,"answer":["F","M","O"],"clicked":[["answer","clicked"],["M ","false"],["B ","false"],["J ","false"],["N ","false"],["D ","false"],["O ","false"],["K ","false"],["C ","false"],["F ","false"],["I ","false"],["H ","false"],["G ","false"],["L ","false"],["E ","false"],["A ","false"]],"correct":1,"scaffold":"none","question":"during","scenario":"axis","graph":"triangular","condition":4,"session":"juliet","experiment":"experiment","subject":"4UBJB","internal_node_id":"0.0-9.0-7.0","time_elapsed":1310468,"trial_index":35,"trial_type":"html","url":"../views/src/external/stimulus.html","rt":36263},{"condition":4,"session":"juliet","experiment":"experiment","subject":"4UBJB","internal_node_id":"0.0-10.0","time_elapsed":1318440,"trial_index":36,"trial_type":"single-stim","block":"scenario-draw","key_press":13,"stimulus":"img/jones.png","rt":6966},{"condition":4,"session":"juliet","experiment":"experiment","subject":"4UBJB","internal_node_id":"0.0-11.0","time_elapsed":1502582,"trial_index":37,"trial_type":"html","block":"instructions_drawing","url":"../views/src/external/instructions_draw.html","rt":182989},{"block":"drawingTest","clicked":[["answer","clicked"]],"answer":["I4"],"correct":0,"scaffold":"none","question":"duration","scenario":"jones","graph":"none","condition":4,"session":"juliet","experiment":"experiment","subject":"4UBJB","internal_node_id":"0.0-12.0","time_elapsed":1541864,"trial_index":38,"trial_type":"html","url":"../views/src/external/stimulus.html","rt":37931},{"block":"drawingTest","clicked":[["answer","clicked"]],"answer":["Bahar","1-3pm","3-4pm"],"correct":0,"scaffold":"none","question":"overlap","scenario":"jones","graph":"none","condition":4,"session":"juliet","experiment":"experiment","subject":"4UBJB","internal_node_id":"0.0-13.0","time_elapsed":1665197,"trial_index":39,"trial_type":"html","url":"../views/src/external/stimulus.html","rt":122088},{"condition":4,"session":"juliet","experiment":"experiment","subject":"4UBJB","internal_node_id":"0.0-14.0","time_elapsed":1683826,"trial_index":40,"trial_type":"survey-text","block":"demo-1","responses":"{\"Q0\":\"22\",\"Q1\":\"United States\"}","rt":17622},{"condition":4,"session":"juliet","experiment":"experiment","subject":"4UBJB","internal_node_id":"0.0-15.0","time_elapsed":1704540,"trial_index":41,"trial_type":"survey-multi-choice","block":"demo-2","responses":"{\"Q0\":\"English\",\"Q1\":\"Third\",\"Q2\":\"Social Sciences (incl. CogSci)\",\"Q3\":\"Female\",\"Q4\":\"the first one (linear\"}","rt":19691},{"condition":4,"session":"juliet","experiment":"experiment","subject":"4UBJB","internal_node_id":"0.0-16.0","time_elapsed":1718210,"trial_index":42,"trial_type":"html","block":"debrief","url":"../views/src/external/debrief.html","rt":12433}],"__v":0}
{"_id":{"$oid":"58c444dd8dfa930004a807fb"},"data":[{"condition":1,"session":"juliet","experiment":"reverse","subject":"ZR1KM","internal_node_id":"0.0-0.0","time_elapsed":212053,"trial_index":0,"trial_type":"single-stim","block":"phone","key_press":13,"stimulus":"img/phone.png","rt":212047},{"condition":1,"session":"juliet","experiment":"reverse","subject":"ZR1KM","internal_node_id":"0.0-1.0","time_elapsed":222124,"trial_index":1,"trial_type":"html","block":"consent","url":"../views/src/external/consent.html","rt":8818},{"condition":1,"session":"juliet","experiment":"reverse","subject":"ZR1KM","internal_node_id":"0.0-2.0","time_elapsed":228623,"trial_index":2,"trial_type":"survey-text","block":"codes","responses":"{\"Q0\":\"JULIET\",\"Q1\":\"1\"}","rt":5491},{"condition":1,"session":"juliet","experiment":"reverse","subject":"ZR1KM","internal_node_id":"0.0-3.0","time_elapsed":235615,"trial_index":3,"trial_type":"html","block":"instructions_lab","url":"../views/src/external/instructions_lab.html","rt":5809},{"condition":1,"session":"juliet","experiment":"reverse","subject":"ZR1KM","internal_node_id":"0.0-4.0","time_elapsed":251233,"trial_index":4,"trial_type":"single-stim","block":"scenario-two","key_press":13,"stimulus":"img/axis.png","rt":14615},{"block":"triangular_scaffolded","helps":0,"clicked":[["answer","clicked"],["M ","false"],["B ","false"],["J ","false"],["N ","false"],["D ","false"],["O ","false"],["K ","false"],["C ","false"],["F ","false"],["I ","false"],["H ","false"],["G ","false"],["L ","false"],["E ","false"],["A ","false"]],"answer":["G"],"correct":0,"scaffold":"describe-what","question":"start","scenario":"axis","graph":"triangular","condition":1,"session":"juliet","experiment":"reverse","subject":"ZR1KM","internal_node_id":"0.0-5.0-0.0","time_elapsed":297859,"trial_index":5,"trial_type":"html","url":"../views/src/external/stimulus.html","rt":45181},{"block":"triangular_scaffolded","helps":0,"clicked":[["answer","clicked"],["M ","false"],["B ","false"],["J ","false"],["N ","false"],["D ","false"],["O ","false"],["K ","false"],["C ","false"],["F ","false"],["I ","false"],["H ","false"],["G ","false"],["L ","false"],["E ","false"],["A ","false"]],"answer":["6"],"correct":0,"scaffold":"describe-what","question":"end","scenario":"axis","graph":"triangular","condition":1,"session":"juliet","experiment":"reverse","subject":"ZR1KM","internal_node_id":"0.0-5.0-1.0","time_elapsed":352273,"trial_index":6,"trial_type":"html","url":"../views/src/external/stimulus.html","rt":53157},{"block":"triangular_scaffolded","helps":0,"clicked":[["answer","clicked"],["M ","false"],["B ","false"],["J ","false"],["N ","false"],["D ","false"],["O ","false"],["K ","false"],["C ","false"],["F ","false"],["I ","false"],["H ","false"],["G ","false"],["L ","false"],["E ","false"],["A ","false"]],"answer":["A","C","E","F","G","H","I","K","L"],"correct":1,"scaffold":"describe-what","question":"duration","scenario":"axis","graph":"triangular","condition":1,"session":"juliet","experiment":"reverse","subject":"ZR1KM","internal_node_id":"0.0-5.0-2.0","time_elapsed":377779,"trial_index":7,"trial_type":"html","url":"../views/src/external/stimulus.html","rt":24257},{"block":"triangular_scaffolded","helps":0,"clicked":[["answer","clicked"],["M ","false"],["B ","false"],["J ","false"],["N ","false"],["D ","false"],["O ","false"],["K ","false"],["C ","false"],["F ","false"],["I ","false"],["H ","false"],["G ","false"],["L ","false"],["E ","false"],["A ","false"]],"answer":["3"],"correct":0,"scaffold":"describe-what","question":"midpoint","scenario":"axis","graph":"triangular","condition":1,"session":"juliet","experiment":"reverse","subject":"ZR1KM","internal_node_id":"0.0-5.0-3.0","time_elapsed":485614,"trial_index":8,"trial_type":"html","url":"../views/src/external/stimulus.html","rt":106583},{"block":"triangular_scaffolded","helps":0,"clicked":[["answer","clicked"],["M ","false"],["B ","false"],["J ","false"],["N ","false"],["D ","false"],["O ","false"],["K ","false"],["C ","false"],["F ","false"],["I ","false"],["H ","false"],["G ","false"],["L ","false"],["E ","false"],["A ","false"]],"answer":["2"],"correct":0,"scaffold":"describe-what","question":"start+overlap","scenario":"axis","graph":"triangular","condition":1,"session":"juliet","experiment":"reverse","subject":"ZR1KM","internal_node_id":"0.0-5.0-4.0","time_elapsed":524178,"trial_index":9,"trial_type":"html","url":"../views/src/external/stimulus.html","rt":37128},{"block":"triangular_testing","helps":0,"answer":["O"],"clicked":[["answer","clicked"],["M ","false"],["B ","false"],["J ","false"],["N ","false"],["D ","false"],["O ","false"],["K ","false"],["C ","false"],["F ","false"],["I ","false"],["H ","false"],["G ","false"],["L ","false"],["E ","false"],["A ","false"]],"correct":0,"scaffold":"none","question":"during","scenario":"axis","graph":"triangular","condition":1,"session":"juliet","experiment":"reverse","subject":"ZR1KM","internal_node_id":"0.0-6.0-7.0","time_elapsed":553697,"trial_index":10,"trial_type":"html","url":"../views/src/external/stimulus.html","rt":28262},{"block":"triangular_testing","helps":0,"answer":["E"],"clicked":[["answer","clicked"],["M ","false"],["B ","false"],["J ","false"],["N ","false"],["D ","false"],["O ","false"],["K ","false"],["C ","false"],["F ","false"],["I ","false"],["H ","false"],["G ","false"],["L ","false"],["E ","false"],["A ","false"]],"correct":0,"scaffold":"none","question":"during+overlap","scenario":"axis","graph":"triangular","condition":1,"session":"juliet","experiment":"reverse","subject":"ZR1KM","internal_node_id":"0.0-6.0-3.0","time_elapsed":601868,"trial_index":11,"trial_type":"html","url":"../views/src/external/stimulus.html","rt":46912},{"block":"triangular_testing","helps":0,"answer":["F"],"clicked":[["answer","clicked"],["M ","false"],["B ","false"],["J ","false"],["N ","false"],["D ","false"],["O ","false"],["K ","false"],["C ","false"],["F ","false"],["I ","false"],["H ","false"],["G ","false"],["L ","false"],["E ","false"],["A ","false"]],"correct":0,"scaffold":"none","question":"finishes","scenario":"axis","graph":"triangular","condition":1,"session":"juliet","experiment":"reverse","subject":"ZR1KM","internal_node_id":"0.0-6.0-6.0","time_elapsed":634739,"trial_index":12,"trial_type":"html","url":"../views/src/external/stimulus.html","rt":31352},{"block":"triangular_testing","helps":0,"answer":["F","H"],"clicked":[["answer","clicked"],["M ","false"],["B ","false"],["J ","false"],["N ","false"],["D ","false"],["O ","false"],["K ","false"],["C ","false"],["F ","false"],["I ","false"],["H ","false"],["G ","false"],["L ","false"],["E ","false"],["A ","false"]],"correct":0,"scaffold":"none","question":"meets","scenario":"axis","graph":"triangular","condition":1,"session":"juliet","experiment":"reverse","subject":"ZR1KM","internal_node_id":"0.0-6.0-8.0","time_elapsed":711256,"trial_index":13,"trial_type":"html","url":"../views/src/external/stimulus.html","rt":75258},{"block":"triangular_testing","helps":0,"answer":["9"],"clicked":[["answer","clicked"],["M ","false"],["B ","false"],["J ","false"],["N ","false"],["D ","false"],["O ","false"],["K ","false"],["C ","false"],["F ","false"],["I ","false"],["H ","false"],["G ","false"],["L ","false"],["E ","false"],["A ","false"]],"correct":0,"scaffold":"none","question":"starts","scenario":"axis","graph":"triangular","condition":1,"session":"juliet","experiment":"reverse","subject":"ZR1KM","internal_node_id":"0.0-6.0-5.0","time_elapsed":755223,"trial_index":14,"trial_type":"html","url":"../views/src/external/stimulus.html","rt":42528},{"block":"triangular_testing","helps":0,"answer":["B","C","E","F","J"],"clicked":[["answer","clicked"],["M ","false"],["B ","false"],["J ","false"],["N ","false"],["D ","false"],["O ","false"],["K ","false"],["C ","false"],["F ","false"],["I ","false"],["H ","false"],["G ","false"],["L ","false"],["E ","false"],["A ","false"]],"correct":0,"scaffold":"none","question":"overlap+overlap","scenario":"axis","graph":"triangular","condition":1,"session":"juliet","experiment":"reverse","subject":"ZR1KM","internal_node_id":"0.0-6.0-2.0","time_elapsed":798427,"trial_index":15,"trial_type":"html","url":"../views/src/external/stimulus.html","rt":41955},{"block":"triangular_testing","helps":0,"answer":["A","F","G","H","L","M","O"],"clicked":[["answer","clicked"],["M ","false"],["B ","false"],["J ","false"],["N ","false"],["D ","false"],["O ","false"],["K ","false"],["C ","false"],["F ","false"],["I ","false"],["H ","false"],["G ","false"],["L ","false"],["E ","false"],["A ","false"]],"correct":0,"scaffold":"none","question":"before+overlap","scenario":"axis","graph":"triangular","condition":1,"session":"juliet","experiment":"reverse","subject":"ZR1KM","internal_node_id":"0.0-6.0-1.0","time_elapsed":850888,"trial_index":16,"trial_type":"html","url":"../views/src/external/stimulus.html","rt":51202},{"block":"triangular_testing","helps":0,"answer":["D","N","O"],"clicked":[["answer","clicked"],["M ","false"],["B ","false"],["J ","false"],["N ","false"],["D ","false"],["O ","false"],["K ","false"],["C ","false"],["F ","false"],["I ","false"],["H ","false"],["G ","false"],["L ","false"],["E ","false"],["A ","false"]],"correct":0,"scaffold":"none","question":"contain+duration","scenario":"axis","graph":"triangular","condition":1,"session":"juliet","experiment":"reverse","subject":"ZR1KM","internal_node_id":"0.0-6.0-4.0","time_elapsed":884653,"trial_index":17,"trial_type":"html","url":"../views/src/external/stimulus.html","rt":32504},{"block":"triangular_testing","helps":0,"answer":["10"],"clicked":[["answer","clicked"],["M ","false"],["B ","false"],["J ","false"],["N ","false"],["D ","false"],["O ","false"],["K ","false"],["C ","false"],["F ","false"],["I ","false"],["H ","false"],["G ","false"],["L ","false"],["E ","false"],["A ","false"]],"correct":0,"scaffold":"none","question":"start+duration","scenario":"axis","graph":"triangular","condition":1,"session":"juliet","experiment":"reverse","subject":"ZR1KM","internal_node_id":"0.0-6.0-0.0","time_elapsed":906056,"trial_index":18,"trial_type":"html","url":"../views/src/external/stimulus.html","rt":20153},{"block":"triangular_testing","helps":0,"answer":["F","O"],"clicked":[["answer","clicked"],["M ","false"],["B ","false"],["J ","false"],["N ","false"],["D ","false"],["O ","false"],["K ","false"],["C ","false"],["F ","false"],["I ","false"],["H ","false"],["G ","false"],["L ","false"],["E ","false"],["A ","false"]],"correct":0,"scaffold":"none","question":"starts+finishes","scenario":"axis","graph":"triangular","condition":1,"session":"juliet","experiment":"reverse","subject":"ZR1KM","internal_node_id":"0.0-6.0-9.0","time_elapsed":969409,"trial_index":19,"trial_type":"html","url":"../views/src/external/stimulus.html","rt":62105},{"condition":1,"session":"juliet","experiment":"reverse","subject":"ZR1KM","internal_node_id":"0.0-7.0","time_elapsed":982175,"trial_index":20,"trial_type":"single-stim","block":"scenario-one","key_press":13,"stimulus":"img/longmire.png","rt":11761},{"block":"linear_scaffolded","helps":0,"clicked":[["answer","clicked"],["A ","false"],["M ","false"],["D ","false"],["N ","false"],["B ","false"],["F ","false"],["H ","false"],["G ","false"],["O ","false"],["C ","false"],["J ","false"],["I ","false"],["E ","false"],["L ","false"],["K ","false"]],"answer":["C","D","L"],"correct":1,"scaffold":"describe-what","question":"start","scenario":"longmire","graph":"linear","condition":1,"session":"juliet","experiment":"reverse","subject":"ZR1KM","internal_node_id":"0.0-8.0-0.0","time_elapsed":1008914,"trial_index":21,"trial_type":"html","url":"../views/src/external/stimulus.html","rt":25480},{"block":"linear_scaffolded","helps":0,"clicked":[["answer","clicked"],["A ","false"],["M ","false"],["D ","false"],["N ","false"],["B ","false"],["F ","false"],["H ","false"],["G ","false"],["O ","false"],["C ","false"],["J ","false"],["I ","false"],["E ","false"],["L ","false"],["K ","false"]],"answer":["H","J","K","L","O"],"correct":0,"scaffold":"describe-what","question":"end","scenario":"longmire","graph":"linear","condition":1,"session":"juliet","experiment":"reverse","subject":"ZR1KM","internal_node_id":"0.0-8.0-1.0","time_elapsed":1032884,"trial_index":22,"trial_type":"html","url":"../views/src/external/stimulus.html","rt":22710},{"block":"linear_scaffolded","helps":0,"clicked":[["answer","clicked"],["A ","false"],["M ","false"],["D ","false"],["N ","false"],["B ","false"],["F ","false"],["H ","false"],["G ","false"],["O ","false"],["C ","false"],["J ","false"],["I ","false"],["E ","false"],["L ","false"],["K ","false"]],"answer":["G","O"],"correct":1,"scaffold":"describe-what","question":"duration","scenario":"longmire","graph":"linear","condition":1,"session":"juliet","experiment":"reverse","subject":"ZR1KM","internal_node_id":"0.0-8.0-2.0","time_elapsed":1061157,"trial_index":23,"trial_type":"html","url":"../views/src/external/stimulus.html","rt":27020},{"block":"linear_scaffolded","helps":0,"clicked":[["answer","clicked"],["A ","false"],["M ","false"],["D ","false"],["N ","false"],["B ","false"],["F ","false"],["H ","false"],["G ","false"],["O ","false"],["C ","false"],["J ","false"],["I ","false"],["E ","false"],["L ","false"],["K ","false"]],"answer":["1"],"correct":1,"scaffold":"describe-what","question":"midpoint","scenario":"longmire","graph":"linear","condition":1,"session":"juliet","experiment":"reverse","subject":"ZR1KM","internal_node_id":"0.0-8.0-3.0","time_elapsed":1078016,"trial_index":24,"trial_type":"html","url":"../views/src/external/stimulus.html","rt":15602},{"block":"linear_scaffolded","helps":0,"clicked":[["answer","clicked"],["A ","false"],["M ","false"],["D ","false"],["N ","false"],["B ","false"],["F ","false"],["H ","false"],["G ","false"],["O ","false"],["C ","false"],["J ","false"],["I ","false"],["E ","false"],["L ","false"],["K ","false"]],"answer":["A"],"correct":1,"scaffold":"describe-what","question":"start+overlap","scenario":"longmire","graph":"linear","condition":1,"session":"juliet","experiment":"reverse","subject":"ZR1KM","internal_node_id":"0.0-8.0-4.0","time_elapsed":1091512,"trial_index":25,"trial_type":"html","url":"../views/src/external/stimulus.html","rt":12247},{"block":"linear_testing","helps":0,"clicked":[["answer","clicked"],["A ","false"],["M ","false"],["D ","false"],["N ","false"],["B ","false"],["F ","false"],["H ","false"],["G ","false"],["O ","false"],["C ","false"],["J ","false"],["I ","false"],["E ","false"],["L ","false"],["K ","false"]],"answer":["C"],"correct":1,"scaffold":"none","question":"starts+finishes","scenario":"longmire","graph":"linear","condition":1,"session":"juliet","experiment":"reverse","subject":"ZR1KM","internal_node_id":"0.0-9.0-9.0","time_elapsed":1108312,"trial_index":26,"trial_type":"html","url":"../views/src/external/stimulus.html","rt":15548},{"block":"linear_testing","helps":0,"clicked":[["answer","clicked"],["A ","false"],["M ","false"],["D ","false"],["N ","false"],["B ","false"],["F ","false"],["H ","false"],["G ","false"],["O ","false"],["C ","false"],["J ","false"],["I ","false"],["E ","false"],["L ","false"],["K ","false"]],"answer":["4"],"correct":0,"scaffold":"none","question":"finishes","scenario":"longmire","graph":"linear","condition":1,"session":"juliet","experiment":"reverse","subject":"ZR1KM","internal_node_id":"0.0-9.0-6.0","time_elapsed":1135770,"trial_index":27,"trial_type":"html","url":"../views/src/external/stimulus.html","rt":26158},{"block":"linear_testing","helps":0,"clicked":[["answer","clicked"],["A ","false"],["M ","false"],["D ","false"],["N ","false"],["B ","false"],["F ","false"],["H ","false"],["G ","false"],["O ","false"],["C ","false"],["J ","false"],["I ","false"],["E ","false"],["L ","false"],["K ","false"]],"answer":["A","B","D","F"],"correct":1,"scaffold":"none","question":"start+duration","scenario":"longmire","graph":"linear","condition":1,"session":"juliet","experiment":"reverse","subject":"ZR1KM","internal_node_id":"0.0-9.0-0.0","time_elapsed":1169333,"trial_index":28,"trial_type":"html","url":"../views/src/external/stimulus.html","rt":32308},{"block":"linear_testing","helps":0,"clicked":[["answer","clicked"],["A ","false"],["M ","false"],["D ","false"],["N ","false"],["B ","false"],["F ","false"],["H ","false"],["G ","false"],["O ","false"],["C ","false"],["J ","false"],["I ","false"],["E ","false"],["L ","false"],["K ","false"]],"answer":["A","M","N"],"correct":1,"scaffold":"none","question":"overlap+overlap","scenario":"longmire","graph":"linear","condition":1,"session":"juliet","experiment":"reverse","subject":"ZR1KM","internal_node_id":"0.0-9.0-2.0","time_elapsed":1200276,"trial_index":29,"trial_type":"html","url":"../views/src/external/stimulus.html","rt":29684},{"block":"linear_testing","helps":0,"clicked":[["answer","clicked"],["A ","false"],["M ","false"],["D ","false"],["N ","false"],["B ","false"],["F ","false"],["H ","false"],["G ","false"],["O ","false"],["C ","false"],["J ","false"],["I ","false"],["E ","false"],["L ","false"],["K ","false"]],"answer":["O"],"correct":1,"scaffold":"none","question":"meets","scenario":"longmire","graph":"linear","condition":1,"session":"juliet","experiment":"reverse","subject":"ZR1KM","internal_node_id":"0.0-9.0-8.0","time_elapsed":1216994,"trial_index":30,"trial_type":"html","url":"../views/src/external/stimulus.html","rt":15451},{"block":"linear_testing","helps":0,"clicked":[["answer","clicked"],["A ","false"],["M ","false"],["D ","false"],["N ","false"],["B ","false"],["F ","false"],["H ","false"],["G ","false"],["O ","false"],["C ","false"],["J ","false"],["I ","false"],["E ","false"],["L ","false"],["K ","false"]],"answer":["8"],"correct":0,"scaffold":"none","question":"starts","scenario":"longmire","graph":"linear","condition":1,"session":"juliet","experiment":"reverse","subject":"ZR1KM","internal_node_id":"0.0-9.0-5.0","time_elapsed":1227672,"trial_index":31,"trial_type":"html","url":"../views/src/external/stimulus.html","rt":9423},{"block":"linear_testing","helps":0,"clicked":[["answer","clicked"],["A ","false"],["M ","false"],["D ","false"],["N ","false"],["B ","false"],["F ","false"],["H ","false"],["G ","false"],["O ","false"],["C ","false"],["J ","false"],["I ","false"],["E ","false"],["L ","false"],["K ","false"]],"answer":["K","L"],"correct":1,"scaffold":"none","question":"during+overlap","scenario":"longmire","graph":"linear","condition":1,"session":"juliet","experiment":"reverse","subject":"ZR1KM","internal_node_id":"0.0-9.0-3.0","time_elapsed":1268795,"trial_index":32,"trial_type":"html","url":"../views/src/external/stimulus.html","rt":39864},{"block":"linear_testing","helps":0,"clicked":[["answer","clicked"],["A ","false"],["M ","false"],["D ","false"],["N ","false"],["B ","false"],["F ","false"],["H ","false"],["G ","false"],["O ","false"],["C ","false"],["J ","false"],["I ","false"],["E ","false"],["L ","false"],["K ","false"]],"answer":["G","O"],"correct":1,"scaffold":"none","question":"contain+duration","scenario":"longmire","graph":"linear","condition":1,"session":"juliet","experiment":"reverse","subject":"ZR1KM","internal_node_id":"0.0-9.0-4.0","time_elapsed":1290344,"trial_index":33,"trial_type":"html","url":"../views/src/external/stimulus.html","rt":20298},{"block":"linear_testing","helps":0,"clicked":[["answer","clicked"],["A ","false"],["M ","false"],["D ","false"],["N ","false"],["B ","false"],["F ","false"],["H ","false"],["G ","false"],["O ","false"],["C ","false"],["J ","false"],["I ","false"],["E ","false"],["L ","false"],["K ","false"]],"answer":["A","B","C","D","F","I"],"correct":1,"scaffold":"none","question":"before+overlap","scenario":"longmire","graph":"linear","condition":1,"session":"juliet","experiment":"reverse","subject":"ZR1KM","internal_node_id":"0.0-9.0-1.0","time_elapsed":1319550,"trial_index":34,"trial_type":"html","url":"../views/src/external/stimulus.html","rt":27956},{"block":"linear_testing","helps":0,"clicked":[["answer","clicked"],["A ","false"],["M ","false"],["D ","false"],["N ","false"],["B ","false"],["F ","false"],["H ","false"],["G ","false"],["O ","false"],["C ","false"],["J ","false"],["I ","false"],["E ","false"],["L ","false"],["K ","false"]],"answer":["A","B","C","D","F","G","H","I","J","K","L","O"],"correct":0,"scaffold":"none","question":"during","scenario":"longmire","graph":"linear","condition":1,"session":"juliet","experiment":"reverse","subject":"ZR1KM","internal_node_id":"0.0-9.0-7.0","time_elapsed":1400895,"trial_index":35,"trial_type":"html","url":"../views/src/external/stimulus.html","rt":80082},{"condition":1,"session":"juliet","experiment":"reverse","subject":"ZR1KM","internal_node_id":"0.0-10.0","time_elapsed":1415121,"trial_index":36,"trial_type":"single-stim","block":"scenario-draw","key_press":13,"stimulus":"img/jones.png","rt":13222},{"condition":1,"session":"juliet","experiment":"reverse","subject":"ZR1KM","internal_node_id":"0.0-11.0","time_elapsed":1777691,"trial_index":37,"trial_type":"html","block":"instructions_drawing","url":"../views/src/external/instructions_draw.html","rt":361421},{"block":"drawingTest","clicked":[["answer","clicked"]],"answer":["C1"],"correct":1,"scaffold":"none","question":"duration","scenario":"jones","graph":"none","condition":1,"session":"juliet","experiment":"reverse","subject":"ZR1KM","internal_node_id":"0.0-12.0","time_elapsed":1835103,"trial_index":38,"trial_type":"html","url":"../views/src/external/stimulus.html","rt":56074},{"block":"drawingTest","clicked":[["answer","clicked"]],"answer":["Xiao","3-4pm"],"correct":0,"scaffold":"none","question":"overlap","scenario":"jones","graph":"none","condition":1,"session":"juliet","experiment":"reverse","subject":"ZR1KM","internal_node_id":"0.0-13.0","time_elapsed":1867138,"trial_index":39,"trial_type":"html","url":"../views/src/external/stimulus.html","rt":30795},{"condition":1,"session":"juliet","experiment":"reverse","subject":"ZR1KM","internal_node_id":"0.0-14.0","time_elapsed":1873240,"trial_index":40,"trial_type":"survey-text","block":"demo-1","responses":"{\"Q0\":\"21\",\"Q1\":\"USA\"}","rt":5096},{"condition":1,"session":"juliet","experiment":"reverse","subject":"ZR1KM","internal_node_id":"0.0-15.0","time_elapsed":1892081,"trial_index":41,"trial_type":"survey-multi-choice","block":"demo-2","responses":"{\"Q0\":\"Mandarin or Cantonese\",\"Q1\":\"Fourth\",\"Q2\":\"Biomedical \u0026 Health Sciences\",\"Q3\":\"Male\",\"Q4\":\"the first one (linear\"}","rt":17830},{"condition":1,"session":"juliet","experiment":"reverse","subject":"ZR1KM","internal_node_id":"0.0-16.0","time_elapsed":1925179,"trial_index":42,"trial_type":"html","block":"debrief","url":"../views/src/external/debrief.html","rt":31953}],"__v":0}
{"_id":{"$oid":"58c445468dfa930004a807fc"},"data":[{"condition":4,"session":"juliet","experiment":"experiment","subject":"OWMTU","internal_node_id":"0.0-0.0","time_elapsed":212457,"trial_index":0,"trial_type":"single-stim","block":"phone","key_press":13,"stimulus":"img/phone.png","rt":212449},{"condition":4,"session":"juliet","experiment":"experiment","subject":"OWMTU","internal_node_id":"0.0-1.0","time_elapsed":234440,"trial_index":1,"trial_type":"html","block":"consent","url":"../views/src/external/consent.html","rt":20704},{"condition":4,"session":"juliet","experiment":"experiment","subject":"OWMTU","internal_node_id":"0.0-2.0","time_elapsed":247473,"trial_index":2,"trial_type":"survey-text","block":"codes","responses":"{\"Q0\":\"JULIET\",\"Q1\":\"4\"}","rt":12025},{"condition":4,"session":"juliet","experiment":"experiment","subject":"OWMTU","internal_node_id":"0.0-3.0","time_elapsed":251663,"trial_index":3,"trial_type":"html","block":"instructions_lab","url":"../views/src/external/instructions_lab.html","rt":3029},{"condition":4,"session":"juliet","experiment":"experiment","subject":"OWMTU","internal_node_id":"0.0-4.0","time_elapsed":268564,"trial_index":4,"trial_type":"single-stim","block":"scenario-one","key_press":13,"stimulus":"img/axis.png","rt":15898},{"block":"linear_scaffolded","helps":0,"clicked":[["answer","clicked"],["M ","false"],["B ","false"],["J ","false"],["N ","false"],["D ","false"],["O ","true"],["K ","false"],["C ","false"],["F ","false"],["I ","false"],["H ","true"],["G ","false"],["L ","false"],["E ","false"],["A ","false"]],"answer":["H","O"],"correct":1,"scaffold":"show-interactive","question":"start","scenario":"axis","graph":"linear","condition":4,"session":"juliet","experiment":"experiment","subject":"OWMTU","internal_node_id":"0.0-5.0-0.0","time_elapsed":304728,"trial_index":5,"trial_type":"html","url":"../views/src/external/stimulus.html","rt":34727},{"block":"linear_scaffolded","helps":0,"clicked":[["answer","clicked"],["M ","false"],["B ","false"],["J ","false"],["N ","false"],["D ","false"],["O ","false"],["K ","false"],["C ","false"],["F ","false"],["I ","false"],["H ","false"],["G ","true"],["L ","false"],["E ","false"],["A ","false"]],"answer":["4"],"correct":1,"scaffold":"show-interactive","question":"end","scenario":"axis","graph":"linear","condition":4,"session":"juliet","experiment":"experiment","subject":"OWMTU","internal_node_id":"0.0-5.0-1.0","time_elapsed":316229,"trial_index":6,"trial_type":"html","url":"../views/src/external/stimulus.html","rt":10252},{"block":"linear_scaffolded","helps":0,"clicked":[["answer","clicked"],["M ","false"],["B ","false"],["J ","false"],["N ","false"],["D ","false"],["O ","false"],["K ","false"],["C ","false"],["F ","false"],["I ","true"],["H ","true"],["G ","true"],["L ","true"],["E ","true"],["A ","true"]],"answer":["A","E","G","H","I","L"],"correct":0,"scaffold":"show-interactive","question":"duration","scenario":"axis","graph":"linear","condition":4,"session":"juliet","experiment":"experiment","subject":"OWMTU","internal_node_id":"0.0-5.0-2.0","time_elapsed":381672,"trial_index":7,"trial_type":"html","url":"../views/src/external/stimulus.html","rt":64183},{"block":"linear_scaffolded","helps":0,"clicked":[["answer","clicked"],["M ","false"],["B ","false"],["J ","false"],["N ","false"],["D ","false"],["O ","false"],["K ","false"],["C ","false"],["F ","false"],["I ","true"],["H ","false"],["G ","false"],["L ","false"],["E ","false"],["A ","false"]],"answer":["10"],"correct":0,"scaffold":"show-interactive","question":"midpoint","scenario":"axis","graph":"linear","condition":4,"session":"juliet","experiment":"experiment","subject":"OWMTU","internal_node_id":"0.0-5.0-3.0","time_elapsed":437114,"trial_index":8,"trial_type":"html","url":"../views/src/external/stimulus.html","rt":54103},{"block":"linear_scaffolded","helps":0,"clicked":[["answer","clicked"],["M ","false"],["B ","false"],["J ","false"],["N ","false"],["D ","false"],["O ","false"],["K ","false"],["C ","false"],["F ","false"],["I ","false"],["H ","false"],["G ","false"],["L ","false"],["E ","false"],["A ","false"]],"answer":["7"],"correct":1,"scaffold":"show-interactive","question":"start+overlap","scenario":"axis","graph":"linear","condition":4,"session":"juliet","experiment":"experiment","subject":"OWMTU","internal_node_id":"0.0-5.0-4.0","time_elapsed":466997,"trial_index":9,"trial_type":"html","url":"../views/src/external/stimulus.html","rt":28619},{"block":"linear_testing","helps":0,"clicked":[["answer","clicked"],["M ","true"],["B ","false"],["J ","false"],["N ","false"],["D ","false"],["O ","true"],["K ","false"],["C ","false"],["F ","true"],["I ","false"],["H ","false"],["G ","true"],["L ","false"],["E ","false"],["A ","false"]],"answer":["F","M","O"],"correct":1,"scaffold":"none","question":"during","scenario":"axis","graph":"linear","condition":4,"session":"juliet","experiment":"experiment","subject":"OWMTU","internal_node_id":"0.0-6.0-7.0","time_elapsed":510979,"trial_index":10,"trial_type":"html","url":"../views/src/external/stimulus.html","rt":42731},{"block":"linear_testing","helps":0,"clicked":[["answer","clicked"],["M ","false"],["B ","false"],["J ","false"],["N ","false"],["D ","false"],["O ","true"],["K ","false"],["C ","false"],["F ","false"],["I ","false"],["H ","false"],["G ","true"],["L ","false"],["E ","false"],["A ","false"]],"answer":["G","O"],"correct":1,"scaffold":"none","question":"finishes","scenario":"axis","graph":"linear","condition":4,"session":"juliet","experiment":"experiment","subject":"OWMTU","internal_node_id":"0.0-6.0-6.0","time_elapsed":538320,"trial_index":11,"trial_type":"html","url":"../views/src/external/stimulus.html","rt":26034},{"block":"linear_testing","helps":0,"clicked":[["answer","clicked"],["M ","false"],["B ","false"],["J ","false"],["N ","false"],["D ","false"],["O ","true"],["K ","false"],["C ","false"],["F ","true"],["I ","false"],["H ","false"],["G ","true"],["L ","false"],["E ","false"],["A ","false"]],"answer":["G"],"correct":1,"scaffold":"none","question":"starts+finishes","scenario":"axis","graph":"linear","condition":4,"session":"juliet","experiment":"experiment","subject":"OWMTU","internal_node_id":"0.0-6.0-9.0","time_elapsed":560431,"trial_index":12,"trial_type":"html","url":"../views/src/external/stimulus.html","rt":20856},{"block":"linear_testing","helps":0,"clicked":[["answer","clicked"],["M ","true"],["B ","false"],["J ","false"],["N ","false"],["D ","false"],["O ","true"],["K ","true"],["C ","false"],["F ","true"],["I ","false"],["H ","false"],["G ","true"],["L ","false"],["E ","false"],["A ","false"]],"answer":["F","G","M","O"],"correct":1,"scaffold":"none","question":"before+overlap","scenario":"axis","graph":"linear","condition":4,"session":"juliet","experiment":"experiment","subject":"OWMTU","internal_node_id":"0.0-6.0-1.0","time_elapsed":613472,"trial_index":13,"trial_type":"html","url":"../views/src/external/stimulus.html","rt":51735},{"block":"linear_testing","helps":0,"clicked":[["answer","clicked"],["M ","false"],["B ","false"],["J ","false"],["N ","true"],["D ","false"],["O ","false"],["K ","false"],["C ","false"],["F ","true"],["I ","false"],["H ","false"],["G ","true"],["L ","false"],["E ","false"],["A ","true"]],"answer":["A","G"],"correct":0,"scaffold":"none","question":"during+overlap","scenario":"axis","graph":"linear","condition":4,"session":"juliet","experiment":"experiment","subject":"OWMTU","internal_node_id":"0.0-6.0-3.0","time_elapsed":674866,"trial_index":14,"trial_type":"html","url":"../views/src/external/stimulus.html","rt":60105},{"block":"linear_testing","helps":0,"clicked":[["answer","clicked"],["M ","false"],["B ","true"],["J ","true"],["N ","true"],["D ","true"],["O ","false"],["K ","false"],["C ","false"],["F ","false"],["I ","false"],["H ","false"],["G ","false"],["L ","false"],["E ","false"],["A ","false"]],"answer":["11"],"correct":0,"scaffold":"none","question":"start+duration","scenario":"axis","graph":"linear","condition":4,"session":"juliet","experiment":"experiment","subject":"OWMTU","internal_node_id":"0.0-6.0-0.0","time_elapsed":705502,"trial_index":15,"trial_type":"html","url":"../views/src/external/stimulus.html","rt":29291},{"block":"linear_testing","helps":0,"clicked":[["answer","clicked"],["M ","false"],["B ","false"],["J ","false"],["N ","true"],["D ","false"],["O ","false"],["K ","true"],["C ","false"],["F ","true"],["I ","false"],["H ","true"],["G ","false"],["L ","false"],["E ","false"],["A ","false"]],"answer":["B","F","G","H","J","M","O"],"correct":0,"scaffold":"none","question":"meets","scenario":"axis","graph":"linear","condition":4,"session":"juliet","experiment":"experiment","subject":"OWMTU","internal_node_id":"0.0-6.0-8.0","time_elapsed":770439,"trial_index":16,"trial_type":"html","url":"../views/src/external/stimulus.html","rt":63682},{"block":"linear_testing","helps":0,"clicked":[["answer","clicked"],["M ","true"],["B ","false"],["J ","false"],["N ","true"],["D ","true"],["O ","true"],["K ","false"],["C ","false"],["F ","false"],["I ","false"],["H ","false"],["G ","false"],["L ","true"],["E ","false"],["A ","false"]],"answer":["D","M","N","O"],"correct":1,"scaffold":"none","question":"contain+duration","scenario":"axis","graph":"linear","condition":4,"session":"juliet","experiment":"experiment","subject":"OWMTU","internal_node_id":"0.0-6.0-4.0","time_elapsed":804284,"trial_index":17,"trial_type":"html","url":"../views/src/external/stimulus.html","rt":32447},{"block":"linear_testing","helps":0,"clicked":[["answer","clicked"],["M ","true"],["B ","true"],["J ","false"],["N ","false"],["D ","false"],["O ","true"],["K ","true"],["C ","true"],["F ","true"],["I ","true"],["H ","true"],["G ","true"],["L ","true"],["E ","true"],["A ","true"]],"answer":["6"],"correct":1,"scaffold":"none","question":"starts","scenario":"axis","graph":"linear","condition":4,"session":"juliet","experiment":"experiment","subject":"OWMTU","internal_node_id":"0.0-6.0-5.0","time_elapsed":846024,"trial_index":18,"trial_type":"html","url":"../views/src/external/stimulus.html","rt":40494},{"block":"linear_testing","helps":0,"clicked":[["answer","clicked"],["M ","false"],["B ","false"],["J ","false"],["N ","false"],["D ","false"],["O ","false"],["K ","true"],["C ","false"],["F ","false"],["I ","true"],["H ","false"],["G ","false"],["L ","false"],["E ","false"],["A ","false"]],"answer":["A","B","C","E","F","G","J"],"correct":0,"scaffold":"none","question":"overlap+overlap","scenario":"axis","graph":"linear","condition":4,"session":"juliet","experiment":"experiment","subject":"OWMTU","internal_node_id":"0.0-6.0-2.0","time_elapsed":880581,"trial_index":19,"trial_type":"html","url":"../views/src/external/stimulus.html","rt":33308},{"condition":4,"session":"juliet","experiment":"experiment","subject":"OWMTU","internal_node_id":"0.0-7.0","time_elapsed":889698,"trial_index":20,"trial_type":"single-stim","block":"scenario-two","key_press":13,"stimulus":"img/longmire.png","rt":8110},{"block":"triangular_scaffolded","helps":0,"clicked":[["answer","clicked"],["A ","true"],["M ","false"],["D ","true"],["N ","false"],["B ","false"],["F ","false"],["H ","false"],["G ","false"],["O ","false"],["C ","true"],["J ","false"],["I ","false"],["E ","false"],["L ","true"],["K ","false"]],"answer":["C","D","L"],"correct":1,"scaffold":"show-interactive","question":"start","scenario":"longmire","graph":"triangular","condition":4,"session":"juliet","experiment":"experiment","subject":"OWMTU","internal_node_id":"0.0-8.0-0.0","time_elapsed":926668,"trial_index":21,"trial_type":"html","url":"../views/src/external/stimulus.html","rt":35723},{"block":"triangular_scaffolded","helps":0,"clicked":[["answer","clicked"],["A ","false"],["M ","true"],["D ","false"],["N ","true"],["B ","false"],["F ","false"],["H ","true"],["G ","false"],["O ","true"],["C ","false"],["J ","true"],["I ","false"],["E ","false"],["L ","true"],["K ","true"]],"answer":["H","J","K","L","M","N","O"],"correct":1,"scaffold":"show-interactive","question":"end","scenario":"longmire","graph":"triangular","condition":4,"session":"juliet","experiment":"experiment","subject":"OWMTU","internal_node_id":"0.0-8.0-1.0","time_elapsed":958970,"trial_index":22,"trial_type":"html","url":"../views/src/external/stimulus.html","rt":31047},{"block":"triangular_scaffolded","helps":0,"clicked":[["answer","clicked"],["A ","false"],["M ","false"],["D ","false"],["N ","false"],["B ","false"],["F ","false"],["H ","false"],["G ","true"],["O ","true"],["C ","false"],["J ","false"],["I ","false"],["E ","false"],["L ","false"],["K ","false"]],"answer":["G","O"],"correct":1,"scaffold":"show-interactive","question":"duration","scenario":"longmire","graph":"triangular","condition":4,"session":"juliet","experiment":"experiment","subject":"OWMTU","internal_node_id":"0.0-8.0-2.0","time_elapsed":993699,"trial_index":23,"trial_type":"html","url":"../views/src/external/stimulus.html","rt":33463},{"block":"triangular_scaffolded","helps":0,"clicked":[["answer","clicked"],["A ","false"],["M ","false"],["D ","false"],["N ","false"],["B ","false"],["F ","false"],["H ","false"],["G ","false"],["O ","false"],["C ","false"],["J ","true"],["I ","false"],["E ","false"],["L ","false"],["K ","false"]],"answer":["1"],"correct":1,"scaffold":"show-interactive","question":"midpoint","scenario":"longmire","graph":"triangular","condition":4,"session":"juliet","experiment":"experiment","subject":"OWMTU","internal_node_id":"0.0-8.0-3.0","time_elapsed":1015510,"trial_index":24,"trial_type":"html","url":"../views/src/external/stimulus.html","rt":20565},{"block":"triangular_scaffolded","helps":0,"clicked":[["answer","clicked"],["A ","false"],["M ","false"],["D ","false"],["N ","false"],["B ","false"],["F ","false"],["H ","false"],["G ","false"],["O ","false"],["C ","false"],["J ","false"],["I ","false"],["E ","false"],["L ","false"],["K ","false"]],"answer":["A"],"correct":1,"scaffold":"show-interactive","question":"start+overlap","scenario":"longmire","graph":"triangular","condition":4,"session":"juliet","experiment":"experiment","subject":"OWMTU","internal_node_id":"0.0-8.0-4.0","time_elapsed":1027869,"trial_index":25,"trial_type":"html","url":"../views/src/external/stimulus.html","rt":11099},{"block":"triangular_testing","helps":0,"answer":["4","5"],"clicked":[["answer","clicked"],["A ","false"],["M ","false"],["D ","false"],["N ","false"],["B ","false"],["F ","false"],["H ","false"],["G ","false"],["O ","false"],["C ","false"],["J ","false"],["I ","false"],["E ","false"],["L ","false"],["K ","false"]],"correct":1,"scaffold":"none","question":"finishes","scenario":"longmire","graph":"triangular","condition":4,"session":"juliet","experiment":"experiment","subject":"OWMTU","internal_node_id":"0.0-9.0-6.0","time_elapsed":1068460,"trial_index":26,"trial_type":"html","url":"../views/src/external/stimulus.html","rt":39343},{"block":"triangular_testing","helps":0,"answer":["K","L"],"clicked":[["answer","clicked"],["A ","false"],["M ","false"],["D ","true"],["N ","false"],["B ","false"],["F ","false"],["H ","true"],["G ","false"],["O ","false"],["C ","false"],["J ","false"],["I ","false"],["E ","false"],["L ","false"],["K ","false"]],"correct":1,"scaffold":"none","question":"during+overlap","scenario":"longmire","graph":"triangular","condition":4,"session":"juliet","experiment":"experiment","subject":"OWMTU","internal_node_id":"0.0-9.0-3.0","time_elapsed":1111850,"trial_index":27,"trial_type":"html","url":"../views/src/external/stimulus.html","rt":42141},{"block":"triangular_testing","helps":0,"answer":["F","G"],"clicked":[["answer","clicked"],["A ","false"],["M ","false"],["D ","false"],["N ","false"],["B ","false"],["F ","false"],["H ","false"],["G ","false"],["O ","false"],["C ","false"],["J ","false"],["I ","false"],["E ","false"],["L ","false"],["K ","false"]],"correct":0,"scaffold":"none","question":"overlap+overlap","scenario":"longmire","graph":"triangular","condition":4,"session":"juliet","experiment":"experiment","subject":"OWMTU","internal_node_id":"0.0-9.0-2.0","time_elapsed":1134903,"trial_index":28,"trial_type":"html","url":"../views/src/external/stimulus.html","rt":21808},{"block":"triangular_testing","helps":0,"answer":["B","C","D","F","G"],"clicked":[["answer","clicked"],["A ","false"],["M ","false"],["D ","false"],["N ","false"],["B ","false"],["F ","false"],["H ","false"],["G ","false"],["O ","false"],["C ","false"],["J ","false"],["I ","false"],["E ","true"],["L ","false"],["K ","false"]],"correct":1,"scaffold":"none","question":"during","scenario":"longmire","graph":"triangular","condition":4,"session":"juliet","experiment":"experiment","subject":"OWMTU","internal_node_id":"0.0-9.0-7.0","time_elapsed":1208700,"trial_index":29,"trial_type":"html","url":"../views/src/external/stimulus.html","rt":72541},{"block":"triangular_testing","helps":0,"answer":["G","O"],"clicked":[["answer","clicked"],["A ","false"],["M ","false"],["D ","false"],["N ","false"],["B ","false"],["F ","false"],["H ","false"],["G ","false"],["O ","false"],["C ","false"],["J ","true"],["I ","false"],["E ","false"],["L ","false"],["K ","false"]],"correct":1,"scaffold":"none","question":"contain+duration","scenario":"longmire","graph":"triangular","condition":4,"session":"juliet","experiment":"experiment","subject":"OWMTU","internal_node_id":"0.0-9.0-4.0","time_elapsed":1227142,"trial_index":30,"trial_type":"html","url":"../views/src/external/stimulus.html","rt":17092},{"block":"triangular_testing","helps":0,"answer":["M"],"clicked":[["answer","clicked"],["A ","false"],["M ","false"],["D ","false"],["N ","true"],["B ","false"],["F ","false"],["H ","false"],["G ","false"],["O ","false"],["C ","false"],["J ","false"],["I ","false"],["E ","false"],["L ","false"],["K ","false"]],"correct":0,"scaffold":"none","question":"before+overlap","scenario":"longmire","graph":"triangular","condition":4,"session":"juliet","experiment":"experiment","subject":"OWMTU","internal_node_id":"0.0-9.0-1.0","time_elapsed":1242832,"trial_index":31,"trial_type":"html","url":"../views/src/external/stimulus.html","rt":14435},{"block":"triangular_testing","helps":0,"answer":["C"],"clicked":[["answer","clicked"],["A ","false"],["M ","false"],["D ","true"],["N ","false"],["B ","false"],["F ","false"],["H ","false"],["G ","false"],["O ","false"],["C ","false"],["J ","false"],["I ","true"],["E ","false"],["L ","false"],["K ","false"]],"correct":1,"scaffold":"none","question":"starts+finishes","scenario":"longmire","graph":"triangular","condition":4,"session":"juliet","experiment":"experiment","subject":"OWMTU","internal_node_id":"0.0-9.0-9.0","time_elapsed":1267879,"trial_index":32,"trial_type":"html","url":"../views/src/external/stimulus.html","rt":23790},{"block":"triangular_testing","helps":0,"answer":["O"],"clicked":[["answer","clicked"],["A ","false"],["M ","false"],["D ","false"],["N ","false"],["B ","false"],["F ","true"],["H ","false"],["G ","false"],["O ","false"],["C ","false"],["J ","false"],["I ","false"],["E ","false"],["L ","false"],["K ","false"]],"correct":1,"scaffold":"none","question":"meets","scenario":"longmire","graph":"triangular","condition":4,"session":"juliet","experiment":"experiment","subject":"OWMTU","internal_node_id":"0.0-9.0-8.0","time_elapsed":1288984,"trial_index":33,"trial_type":"html","url":"../views/src/external/stimulus.html","rt":19845},{"block":"triangular_testing","helps":0,"answer":["6","8"],"clicked":[["answer","clicked"],["A ","false"],["M ","false"],["D ","false"],["N ","false"],["B ","false"],["F ","false"],["H ","false"],["G ","false"],["O ","false"],["C ","false"],["J ","false"],["I ","false"],["E ","false"],["L ","false"],["K ","false"]],"correct":1,"scaffold":"none","question":"starts","scenario":"longmire","graph":"triangular","condition":4,"session":"juliet","experiment":"experiment","subject":"OWMTU","internal_node_id":"0.0-9.0-5.0","time_elapsed":1308645,"trial_index":34,"trial_type":"html","url":"../views/src/external/stimulus.html","rt":18403},{"block":"triangular_testing","helps":0,"answer":["A","B","D","F"],"clicked":[["answer","clicked"],["A ","true"],["M ","false"],["D ","true"],["N ","false"],["B ","true"],["F ","true"],["H ","false"],["G ","false"],["O ","false"],["C ","false"],["J ","false"],["I ","false"],["E ","false"],["L ","false"],["K ","false"]],"correct":1,"scaffold":"none","question":"start+duration","scenario":"longmire","graph":"triangular","condition":4,"session":"juliet","experiment":"experiment","subject":"OWMTU","internal_node_id":"0.0-9.0-0.0","time_elapsed":1342501,"trial_index":35,"trial_type":"html","url":"../views/src/external/stimulus.html","rt":32604},{"condition":4,"session":"juliet","experiment":"experiment","subject":"OWMTU","internal_node_id":"0.0-10.0","time_elapsed":1354945,"trial_index":36,"trial_type":"single-stim","block":"scenario-draw","key_press":13,"stimulus":"img/jones.png","rt":11439},{"condition":4,"session":"juliet","experiment":"experiment","subject":"OWMTU","internal_node_id":"0.0-11.0","time_elapsed":1942119,"trial_index":37,"trial_type":"html","block":"instructions_drawing","url":"../views/src/external/instructions_draw.html","rt":586012},{"block":"drawingTest","clicked":[["answer","clicked"]],"answer":["B1","H3"],"correct":0,"scaffold":"none","question":"duration","scenario":"jones","graph":"none","condition":4,"session":"juliet","experiment":"experiment","subject":"OWMTU","internal_node_id":"0.0-12.0","time_elapsed":1955547,"trial_index":38,"trial_type":"html","url":"../views/src/external/stimulus.html","rt":12080},{"block":"drawingTest","clicked":[["answer","clicked"]],"answer":["Anne","Chris","9-10am","9-12pm","3-4pm"],"correct":0,"scaffold":"none","question":"overlap","scenario":"jones","graph":"none","condition":4,"session":"juliet","experiment":"experiment","subject":"OWMTU","internal_node_id":"0.0-13.0","time_elapsed":1990682,"trial_index":39,"trial_type":"html","url":"../views/src/external/stimulus.html","rt":33882},{"condition":4,"session":"juliet","experiment":"experiment","subject":"OWMTU","internal_node_id":"0.0-14.0","time_elapsed":2001015,"trial_index":40,"trial_type":"survey-text","block":"demo-1","responses":"{\"Q0\":\"21\",\"Q1\":\"United States\"}","rt":9327},{"condition":4,"session":"juliet","experiment":"experiment","subject":"OWMTU","internal_node_id":"0.0-15.0","time_elapsed":2014358,"trial_index":41,"trial_type":"survey-multi-choice","block":"demo-2","responses":"{\"Q0\":\"English\",\"Q1\":\"Fourth\",\"Q2\":\"Biomedical \u0026 Health Sciences\",\"Q3\":\"Male\",\"Q4\":\"the second one (triangular)\"}","rt":12316},{"condition":4,"session":"juliet","experiment":"experiment","subject":"OWMTU","internal_node_id":"0.0-16.0","time_elapsed":2030201,"trial_index":42,"trial_type":"html","block":"debrief","url":"../views/src/external/debrief.html","rt":14702}],"__v":0}
