{"_id":{"$oid":"58b88e3fcdc49200040b0c06"},"data":[{"condition":"3","session":"bravo","experiment":"experiment","subject":"1129F","internal_node_id":"0.0-0.0","time_elapsed":381820,"trial_index":0,"trial_type":"single-stim","block":"phone","key_press":13,"stimulus":"img/phone.png","rt":381811},{"condition":"3","session":"bravo","experiment":"experiment","subject":"1129F","internal_node_id":"0.0-1.0","time_elapsed":389569,"trial_index":1,"trial_type":"html","block":"consent","url":"../views/src/external/consent.html","rt":6517},{"condition":"3","session":"bravo","experiment":"experiment","subject":"1129F","internal_node_id":"0.0-2.0","time_elapsed":398261,"trial_index":2,"trial_type":"survey-text","block":"codes","responses":"{\"Q0\":\"bravo\",\"Q1\":\"3\"}","rt":7680},{"condition":"3","session":"bravo","experiment":"experiment","subject":"1129F","internal_node_id":"0.0-3.0","time_elapsed":408371,"trial_index":3,"trial_type":"html","block":"instructions_lab","url":"../views/src/external/instructions_lab.html","rt":9008},{"condition":"3","session":"bravo","experiment":"experiment","subject":"1129F","internal_node_id":"0.0-4.0","time_elapsed":421980,"trial_index":4,"trial_type":"single-stim","block":"scenario-one","key_press":13,"stimulus":"img/axis.png","rt":12606},{"block":"linear_scaffolded","helps":0,"clicked":[["answer","clicked"],["M ","false"],["B ","false"],["J ","false"],["N ","false"],["D ","false"],["O ","false"],["K ","false"],["C ","false"],["F ","false"],["I ","false"],["H ","false"],["G ","false"],["L ","false"],["E ","false"],["A ","false"]],"answer":["H","O"],"correct":1,"scaffold":"show-static","question":"start","scenario":"axis","graph":"linear","condition":"3","session":"bravo","experiment":"experiment","subject":"1129F","internal_node_id":"0.0-5.0-0.0","time_elapsed":440549,"trial_index":5,"trial_type":"html","url":"../views/src/external/stimulus.html","rt":17181},{"block":"linear_scaffolded","helps":0,"clicked":[["answer","clicked"],["M ","false"],["B ","false"],["J ","false"],["N ","false"],["D ","false"],["O ","false"],["K ","false"],["C ","false"],["F ","false"],["I ","false"],["H ","false"],["G ","false"],["L ","false"],["E ","false"],["A ","false"]],"answer":["4"],"correct":1,"scaffold":"show-static","question":"end","scenario":"axis","graph":"linear","condition":"3","session":"bravo","experiment":"experiment","subject":"1129F","internal_node_id":"0.0-5.0-1.0","time_elapsed":449285,"trial_index":6,"trial_type":"html","url":"../views/src/external/stimulus.html","rt":7455},{"block":"linear_scaffolded","helps":0,"clicked":[["answer","clicked"],["M ","false"],["B ","false"],["J ","false"],["N ","false"],["D ","false"],["O ","false"],["K ","false"],["C ","false"],["F ","false"],["I ","false"],["H ","false"],["G ","false"],["L ","false"],["E ","false"],["A ","false"]],"answer":["A","E","G","I","L"],"correct":0,"scaffold":"show-static","question":"duration","scenario":"axis","graph":"linear","condition":"3","session":"bravo","experiment":"experiment","subject":"1129F","internal_node_id":"0.0-5.0-2.0","time_elapsed":500544,"trial_index":7,"trial_type":"html","url":"../views/src/external/stimulus.html","rt":49971},{"block":"linear_scaffolded","helps":0,"clicked":[["answer","clicked"],["M ","false"],["B ","false"],["J ","false"],["N ","false"],["D ","false"],["O ","false"],["K ","false"],["C ","false"],["F ","false"],["I ","false"],["H ","false"],["G ","false"],["L ","false"],["E ","false"],["A ","false"]],"answer":["10"],"correct":0,"scaffold":"show-static","question":"midpoint","scenario":"axis","graph":"linear","condition":"3","session":"bravo","experiment":"experiment","subject":"1129F","internal_node_id":"0.0-5.0-3.0","time_elapsed":543115,"trial_index":8,"trial_type":"html","url":"../views/src/external/stimulus.html","rt":41289},{"block":"linear_scaffolded","helps":0,"clicked":[["answer","clicked"],["M ","false"],["B ","false"],["J ","false"],["N ","false"],["D ","false"],["O ","false"],["K ","false"],["C ","false"],["F ","false"],["I ","false"],["H ","false"],["G ","false"],["L ","false"],["E ","false"],["A ","false"]],"answer":["10"],"correct":0,"scaffold":"show-static","question":"start+overlap","scenario":"axis","graph":"linear","condition":"3","session":"bravo","experiment":"experiment","subject":"1129F","internal_node_id":"0.0-5.0-4.0","time_elapsed":564962,"trial_index":9,"trial_type":"html","url":"../views/src/external/stimulus.html","rt":20575},{"block":"linear_testing","helps":0,"clicked":[["answer","clicked"],["M ","false"],["B ","false"],["J ","false"],["N ","false"],["D ","false"],["O ","false"],["K ","false"],["C ","false"],["F ","false"],["I ","false"],["H ","false"],["G ","false"],["L ","false"],["E ","false"],["A ","false"]],"answer":["G"],"correct":1,"scaffold":"none","question":"starts+finishes","scenario":"axis","graph":"linear","condition":"3","session":"bravo","experiment":"experiment","subject":"1129F","internal_node_id":"0.0-6.0-9.0","time_elapsed":589506,"trial_index":10,"trial_type":"html","url":"../views/src/external/stimulus.html","rt":23266},{"block":"linear_testing","helps":0,"clicked":[["answer","clicked"],["M ","false"],["B ","false"],["J ","false"],["N ","false"],["D ","false"],["O ","false"],["K ","false"],["C ","false"],["F ","false"],["I ","false"],["H ","false"],["G ","false"],["L ","false"],["E ","false"],["A ","false"]],"answer":["G","O"],"correct":1,"scaffold":"none","question":"finishes","scenario":"axis","graph":"linear","condition":"3","session":"bravo","experiment":"experiment","subject":"1129F","internal_node_id":"0.0-6.0-6.0","time_elapsed":600026,"trial_index":11,"trial_type":"html","url":"../views/src/external/stimulus.html","rt":9246},{"block":"linear_testing","helps":0,"clicked":[["answer","clicked"],["M ","false"],["B ","false"],["J ","false"],["N ","false"],["D ","false"],["O ","false"],["K ","false"],["C ","false"],["F ","false"],["I ","false"],["H ","false"],["G ","false"],["L ","false"],["E ","false"],["A ","false"]],"answer":["9","2"],"correct":0,"scaffold":"none","question":"start+duration","scenario":"axis","graph":"linear","condition":"3","session":"bravo","experiment":"experiment","subject":"1129F","internal_node_id":"0.0-6.0-0.0","time_elapsed":609322,"trial_index":12,"trial_type":"html","url":"../views/src/external/stimulus.html","rt":8020},{"block":"linear_testing","helps":0,"clicked":[["answer","clicked"],["M ","false"],["B ","false"],["J ","false"],["N ","false"],["D ","false"],["O ","false"],["K ","false"],["C ","false"],["F ","false"],["I ","false"],["H ","false"],["G ","false"],["L ","false"],["E ","false"],["A ","false"]],"answer":["C","G","N"],"correct":0,"scaffold":"none","question":"during+overlap","scenario":"axis","graph":"linear","condition":"3","session":"bravo","experiment":"experiment","subject":"1129F","internal_node_id":"0.0-6.0-3.0","time_elapsed":614666,"trial_index":13,"trial_type":"html","url":"../views/src/external/stimulus.html","rt":4068},{"block":"linear_testing","helps":0,"clicked":[["answer","clicked"],["M ","false"],["B ","false"],["J ","false"],["N ","false"],["D ","false"],["O ","false"],["K ","false"],["C ","false"],["F ","false"],["I ","false"],["H ","false"],["G ","false"],["L ","false"],["E ","false"],["A ","false"]],"answer":["2","3","8"],"correct":0,"scaffold":"none","question":"starts","scenario":"axis","graph":"linear","condition":"3","session":"bravo","experiment":"experiment","subject":"1129F","internal_node_id":"0.0-6.0-5.0","time_elapsed":619946,"trial_index":14,"trial_type":"html","url":"../views/src/external/stimulus.html","rt":3995},{"block":"linear_testing","helps":0,"clicked":[["answer","clicked"],["M ","false"],["B ","false"],["J ","false"],["N ","false"],["D ","false"],["O ","false"],["K ","false"],["C ","false"],["F ","false"],["I ","false"],["H ","false"],["G ","false"],["L ","false"],["E ","false"],["A ","false"]],"answer":["M","O"],"correct":0,"scaffold":"none","question":"during","scenario":"axis","graph":"linear","condition":"3","session":"bravo","experiment":"experiment","subject":"1129F","internal_node_id":"0.0-6.0-7.0","time_elapsed":634548,"trial_index":15,"trial_type":"html","url":"../views/src/external/stimulus.html","rt":13319},{"block":"linear_testing","helps":0,"clicked":[["answer","clicked"],["M ","false"],["B ","false"],["J ","false"],["N ","false"],["D ","false"],["O ","false"],["K ","false"],["C ","false"],["F ","false"],["I ","false"],["H ","false"],["G ","false"],["L ","false"],["E ","false"],["A ","false"]],"answer":["C","F","J"],"correct":0,"scaffold":"none","question":"overlap+overlap","scenario":"axis","graph":"linear","condition":"3","session":"bravo","experiment":"experiment","subject":"1129F","internal_node_id":"0.0-6.0-2.0","time_elapsed":653327,"trial_index":16,"trial_type":"html","url":"../views/src/external/stimulus.html","rt":17500},{"block":"linear_testing","helps":0,"clicked":[["answer","clicked"],["M ","false"],["B ","false"],["J ","false"],["N ","false"],["D ","false"],["O ","false"],["K ","false"],["C ","false"],["F ","false"],["I ","false"],["H ","false"],["G ","false"],["L ","false"],["E ","false"],["A ","false"]],"answer":["F","G"],"correct":0,"scaffold":"none","question":"before+overlap","scenario":"axis","graph":"linear","condition":"3","session":"bravo","experiment":"experiment","subject":"1129F","internal_node_id":"0.0-6.0-1.0","time_elapsed":668161,"trial_index":17,"trial_type":"html","url":"../views/src/external/stimulus.html","rt":13552},{"block":"linear_testing","helps":0,"clicked":[["answer","clicked"],["M ","false"],["B ","false"],["J ","false"],["N ","false"],["D ","false"],["O ","false"],["K ","false"],["C ","false"],["F ","false"],["I ","false"],["H ","false"],["G ","false"],["L ","false"],["E ","false"],["A ","false"]],"answer":["D","H","N","O"],"correct":0,"scaffold":"none","question":"contain+duration","scenario":"axis","graph":"linear","condition":"3","session":"bravo","experiment":"experiment","subject":"1129F","internal_node_id":"0.0-6.0-4.0","time_elapsed":686423,"trial_index":18,"trial_type":"html","url":"../views/src/external/stimulus.html","rt":16983},{"block":"linear_testing","helps":0,"clicked":[["answer","clicked"],["M ","false"],["B ","false"],["J ","false"],["N ","false"],["D ","false"],["O ","false"],["K ","false"],["C ","false"],["F ","false"],["I ","false"],["H ","false"],["G ","false"],["L ","false"],["E ","false"],["A ","false"]],"answer":["C","H","I"],"correct":0,"scaffold":"none","question":"meets","scenario":"axis","graph":"linear","condition":"3","session":"bravo","experiment":"experiment","subject":"1129F","internal_node_id":"0.0-6.0-8.0","time_elapsed":695164,"trial_index":19,"trial_type":"html","url":"../views/src/external/stimulus.html","rt":7459},{"condition":"3","session":"bravo","experiment":"experiment","subject":"1129F","internal_node_id":"0.0-7.0","time_elapsed":704629,"trial_index":20,"trial_type":"single-stim","block":"scenario-two","key_press":13,"stimulus":"img/longmire.png","rt":8458},{"block":"triangular_scaffolded","helps":0,"clicked":[["answer","clicked"],["A ","false"],["M ","false"],["D ","false"],["N ","false"],["B ","false"],["F ","false"],["H ","false"],["G ","false"],["O ","false"],["C ","false"],["J ","false"],["I ","false"],["E ","false"],["L ","false"],["K ","false"]],"answer":["D"],"correct":0,"scaffold":"show-static","question":"start","scenario":"longmire","graph":"triangular","condition":"3","session":"bravo","experiment":"experiment","subject":"1129F","internal_node_id":"0.0-8.0-0.0","time_elapsed":730359,"trial_index":21,"trial_type":"html","url":"../views/src/external/stimulus.html","rt":24440},{"block":"triangular_scaffolded","helps":0,"clicked":[["answer","clicked"],["A ","false"],["M ","false"],["D ","false"],["N ","false"],["B ","false"],["F ","false"],["H ","false"],["G ","false"],["O ","false"],["C ","false"],["J ","false"],["I ","false"],["E ","false"],["L ","false"],["K ","false"]],"answer":["H","J","K","L","M","N","O"],"correct":1,"scaffold":"show-static","question":"end","scenario":"longmire","graph":"triangular","condition":"3","session":"bravo","experiment":"experiment","subject":"1129F","internal_node_id":"0.0-8.0-1.0","time_elapsed":752568,"trial_index":22,"trial_type":"html","url":"../views/src/external/stimulus.html","rt":20931},{"block":"triangular_scaffolded","helps":0,"clicked":[["answer","clicked"],["A ","false"],["M ","false"],["D ","false"],["N ","false"],["B ","false"],["F ","false"],["H ","false"],["G ","false"],["O ","false"],["C ","false"],["J ","false"],["I ","false"],["E ","false"],["L ","false"],["K ","false"]],"answer":["C","E","G","I","J","K","L","O"],"correct":0,"scaffold":"show-static","question":"duration","scenario":"longmire","graph":"triangular","condition":"3","session":"bravo","experiment":"experiment","subject":"1129F","internal_node_id":"0.0-8.0-2.0","time_elapsed":785041,"trial_index":23,"trial_type":"html","url":"../views/src/external/stimulus.html","rt":31200},{"block":"triangular_scaffolded","helps":0,"clicked":[["answer","clicked"],["A ","false"],["M ","false"],["D ","false"],["N ","false"],["B ","false"],["F ","false"],["H ","false"],["G ","false"],["O ","false"],["C ","false"],["J ","false"],["I ","false"],["E ","false"],["L ","false"],["K ","false"]],"answer":["1"],"correct":1,"scaffold":"show-static","question":"midpoint","scenario":"longmire","graph":"triangular","condition":"3","session":"bravo","experiment":"experiment","subject":"1129F","internal_node_id":"0.0-8.0-3.0","time_elapsed":819180,"trial_index":24,"trial_type":"html","url":"../views/src/external/stimulus.html","rt":32862},{"block":"triangular_scaffolded","helps":0,"clicked":[["answer","clicked"],["A ","false"],["M ","false"],["D ","false"],["N ","false"],["B ","false"],["F ","false"],["H ","false"],["G ","false"],["O ","false"],["C ","false"],["J ","false"],["I ","false"],["E ","false"],["L ","false"],["K ","false"]],"answer":["A"],"correct":1,"scaffold":"show-static","question":"start+overlap","scenario":"longmire","graph":"triangular","condition":"3","session":"bravo","experiment":"experiment","subject":"1129F","internal_node_id":"0.0-8.0-4.0","time_elapsed":836968,"trial_index":25,"trial_type":"html","url":"../views/src/external/stimulus.html","rt":16509},{"block":"triangular_testing","helps":0,"answer":["H"],"clicked":[["answer","clicked"],["A ","false"],["M ","false"],["D ","false"],["N ","false"],["B ","false"],["F ","false"],["H ","false"],["G ","false"],["O ","false"],["C ","false"],["J ","false"],["I ","false"],["E ","false"],["L ","false"],["K ","false"]],"correct":0,"scaffold":"none","question":"meets","scenario":"longmire","graph":"triangular","condition":"3","session":"bravo","experiment":"experiment","subject":"1129F","internal_node_id":"0.0-9.0-8.0","time_elapsed":858724,"trial_index":26,"trial_type":"html","url":"../views/src/external/stimulus.html","rt":20486},{"block":"triangular_testing","helps":0,"answer":["6"],"clicked":[["answer","clicked"],["A ","false"],["M ","false"],["D ","false"],["N ","false"],["B ","false"],["F ","false"],["H ","false"],["G ","false"],["O ","false"],["C ","false"],["J ","false"],["I ","false"],["E ","false"],["L ","false"],["K ","false"]],"correct":0,"scaffold":"none","question":"starts","scenario":"longmire","graph":"triangular","condition":"3","session":"bravo","experiment":"experiment","subject":"1129F","internal_node_id":"0.0-9.0-5.0","time_elapsed":884397,"trial_index":27,"trial_type":"html","url":"../views/src/external/stimulus.html","rt":24394},{"block":"triangular_testing","helps":0,"answer":["A","M","N"],"clicked":[["answer","clicked"],["A ","false"],["M ","false"],["D ","false"],["N ","false"],["B ","false"],["F ","false"],["H ","false"],["G ","false"],["O ","false"],["C ","false"],["J ","false"],["I ","false"],["E ","false"],["L ","false"],["K ","false"]],"correct":1,"scaffold":"none","question":"overlap+overlap","scenario":"longmire","graph":"triangular","condition":"3","session":"bravo","experiment":"experiment","subject":"1129F","internal_node_id":"0.0-9.0-2.0","time_elapsed":908313,"trial_index":28,"trial_type":"html","url":"../views/src/external/stimulus.html","rt":22636},{"block":"triangular_testing","helps":0,"answer":["E","K","L"],"clicked":[["answer","clicked"],["A ","false"],["M ","false"],["D ","false"],["N ","false"],["B ","false"],["F ","false"],["H ","false"],["G ","false"],["O ","false"],["C ","false"],["J ","false"],["I ","false"],["E ","false"],["L ","false"],["K ","false"]],"correct":0,"scaffold":"none","question":"during+overlap","scenario":"longmire","graph":"triangular","condition":"3","session":"bravo","experiment":"experiment","subject":"1129F","internal_node_id":"0.0-9.0-3.0","time_elapsed":940849,"trial_index":29,"trial_type":"html","url":"../views/src/external/stimulus.html","rt":31258},{"block":"triangular_testing","helps":0,"answer":["B","C","D","G","J"],"clicked":[["answer","clicked"],["A ","false"],["M ","false"],["D ","false"],["N ","false"],["B ","false"],["F ","false"],["H ","false"],["G ","false"],["O ","false"],["C ","false"],["J ","false"],["I ","false"],["E ","false"],["L ","false"],["K ","false"]],"correct":0,"scaffold":"none","question":"during","scenario":"longmire","graph":"triangular","condition":"3","session":"bravo","experiment":"experiment","subject":"1129F","internal_node_id":"0.0-9.0-7.0","time_elapsed":973209,"trial_index":30,"trial_type":"html","url":"../views/src/external/stimulus.html","rt":31087},{"block":"triangular_testing","helps":0,"answer":["B","C","E","F","K"],"clicked":[["answer","clicked"],["A ","false"],["M ","false"],["D ","false"],["N ","false"],["B ","false"],["F ","false"],["H ","false"],["G ","false"],["O ","false"],["C ","false"],["J ","false"],["I ","false"],["E ","false"],["L ","false"],["K ","false"]],"correct":0,"scaffold":"none","question":"start+duration","scenario":"longmire","graph":"triangular","condition":"3","session":"bravo","experiment":"experiment","subject":"1129F","internal_node_id":"0.0-9.0-0.0","time_elapsed":1008755,"trial_index":31,"trial_type":"html","url":"../views/src/external/stimulus.html","rt":34261},{"block":"triangular_testing","helps":0,"answer":["B","C","D","F","I"],"clicked":[["answer","clicked"],["A ","false"],["M ","false"],["D ","false"],["N ","false"],["B ","false"],["F ","false"],["H ","false"],["G ","false"],["O ","false"],["C ","false"],["J ","false"],["I ","false"],["E ","false"],["L ","false"],["K ","false"]],"correct":0,"scaffold":"none","question":"before+overlap","scenario":"longmire","graph":"triangular","condition":"3","session":"bravo","experiment":"experiment","subject":"1129F","internal_node_id":"0.0-9.0-1.0","time_elapsed":1038915,"trial_index":32,"trial_type":"html","url":"../views/src/external/stimulus.html","rt":28876},{"block":"triangular_testing","helps":0,"answer":["C"],"clicked":[["answer","clicked"],["A ","false"],["M ","false"],["D ","false"],["N ","false"],["B ","false"],["F ","false"],["H ","false"],["G ","false"],["O ","false"],["C ","false"],["J ","false"],["I ","false"],["E ","false"],["L ","false"],["K ","false"]],"correct":1,"scaffold":"none","question":"starts+finishes","scenario":"longmire","graph":"triangular","condition":"3","session":"bravo","experiment":"experiment","subject":"1129F","internal_node_id":"0.0-9.0-9.0","time_elapsed":1062022,"trial_index":33,"trial_type":"html","url":"../views/src/external/stimulus.html","rt":21835},{"block":"triangular_testing","helps":0,"answer":["8","4"],"clicked":[["answer","clicked"],["A ","false"],["M ","false"],["D ","false"],["N ","false"],["B ","false"],["F ","false"],["H ","false"],["G ","false"],["O ","false"],["C ","false"],["J ","false"],["I ","false"],["E ","false"],["L ","false"],["K ","false"]],"correct":0,"scaffold":"none","question":"finishes","scenario":"longmire","graph":"triangular","condition":"3","session":"bravo","experiment":"experiment","subject":"1129F","internal_node_id":"0.0-9.0-6.0","time_elapsed":1068457,"trial_index":34,"trial_type":"html","url":"../views/src/external/stimulus.html","rt":5158},{"block":"triangular_testing","helps":0,"answer":["B","C","H","L"],"clicked":[["answer","clicked"],["A ","false"],["M ","false"],["D ","false"],["N ","false"],["B ","false"],["F ","false"],["H ","false"],["G ","false"],["O ","false"],["C ","false"],["J ","false"],["I ","false"],["E ","false"],["L ","false"],["K ","false"]],"correct":0,"scaffold":"none","question":"contain+duration","scenario":"longmire","graph":"triangular","condition":"3","session":"bravo","experiment":"experiment","subject":"1129F","internal_node_id":"0.0-9.0-4.0","time_elapsed":1074058,"trial_index":35,"trial_type":"html","url":"../views/src/external/stimulus.html","rt":4305},{"condition":"3","session":"bravo","experiment":"experiment","subject":"1129F","internal_node_id":"0.0-10.0","time_elapsed":1077243,"trial_index":36,"trial_type":"single-stim","block":"scenario-draw","key_press":13,"stimulus":"img/jones.png","rt":2179},{"condition":"3","session":"bravo","experiment":"experiment","subject":"1129F","internal_node_id":"0.0-11.0","time_elapsed":1404469,"trial_index":37,"trial_type":"html","block":"instructions_drawing","url":"../views/src/external/instructions_draw.html","rt":326123},{"block":"drawingTest","clicked":[["answer","clicked"]],"answer":["C1"],"correct":1,"scaffold":"none","question":"duration","scenario":"jones","graph":"none","condition":"3","session":"bravo","experiment":"experiment","subject":"1129F","internal_node_id":"0.0-12.0","time_elapsed":1453188,"trial_index":38,"trial_type":"html","url":"../views/src/external/stimulus.html","rt":47339},{"block":"drawingTest","clicked":[["answer","clicked"]],"answer":["Chris","3-4pm"],"correct":1,"scaffold":"none","question":"overlap","scenario":"jones","graph":"none","condition":"3","session":"bravo","experiment":"experiment","subject":"1129F","internal_node_id":"0.0-13.0","time_elapsed":1493698,"trial_index":39,"trial_type":"html","url":"../views/src/external/stimulus.html","rt":39228},{"condition":"3","session":"bravo","experiment":"experiment","subject":"1129F","internal_node_id":"0.0-14.0","time_elapsed":1500515,"trial_index":40,"trial_type":"survey-text","block":"demo-1","responses":"{\"Q0\":\"21\",\"Q1\":\"China\"}","rt":5809},{"condition":"3","session":"bravo","experiment":"experiment","subject":"1129F","internal_node_id":"0.0-15.0","time_elapsed":1518152,"trial_index":41,"trial_type":"survey-multi-choice","block":"demo-2","responses":"{\"Q0\":\"English\",\"Q1\":\"Fourth\",\"Q2\":\"Biomedical \u0026 Health Sciences\",\"Q3\":\"Female\",\"Q4\":\"the first one (linear\"}","rt":16620},{"condition":"3","session":"bravo","experiment":"experiment","subject":"1129F","internal_node_id":"0.0-16.0","time_elapsed":1528455,"trial_index":42,"trial_type":"html","block":"debrief","url":"../views/src/external/debrief.html","rt":9031}],"__v":0}
{"_id":{"$oid":"58b88eb2cdc49200040b0c07"},"data":[{"condition":"4","session":"bravo","experiment":"experiment","subject":"K2EGE","internal_node_id":"0.0-0.0","time_elapsed":369327,"trial_index":0,"trial_type":"single-stim","block":"phone","key_press":13,"stimulus":"img/phone.png","rt":369319},{"condition":"4","session":"bravo","experiment":"experiment","subject":"K2EGE","internal_node_id":"0.0-1.0","time_elapsed":376540,"trial_index":1,"trial_type":"html","block":"consent","url":"../views/src/external/consent.html","rt":5835},{"condition":"4","session":"bravo","experiment":"experiment","subject":"K2EGE","internal_node_id":"0.0-2.0","time_elapsed":383212,"trial_index":2,"trial_type":"survey-text","block":"codes","responses":"{\"Q0\":\"bravo\",\"Q1\":\"4\"}","rt":5662},{"condition":"4","session":"bravo","experiment":"experiment","subject":"K2EGE","internal_node_id":"0.0-3.0","time_elapsed":396420,"trial_index":3,"trial_type":"html","block":"instructions_lab","url":"../views/src/external/instructions_lab.html","rt":12033},{"condition":"4","session":"bravo","experiment":"experiment","subject":"K2EGE","internal_node_id":"0.0-4.0","time_elapsed":412504,"trial_index":4,"trial_type":"single-stim","block":"scenario-one","key_press":13,"stimulus":"img/axis.png","rt":15081},{"block":"linear_scaffolded","helps":0,"clicked":[["answer","clicked"],["M ","false"],["B ","false"],["J ","false"],["N ","false"],["D ","false"],["O ","true"],["K ","false"],["C ","false"],["F ","false"],["I ","false"],["H ","false"],["G ","false"],["L ","false"],["E ","false"],["A ","false"]],"answer":["H","O"],"correct":1,"scaffold":"show-interactive","question":"start","scenario":"axis","graph":"linear","condition":"4","session":"bravo","experiment":"experiment","subject":"K2EGE","internal_node_id":"0.0-5.0-0.0","time_elapsed":441558,"trial_index":5,"trial_type":"html","url":"../views/src/external/stimulus.html","rt":27622},{"block":"linear_scaffolded","helps":0,"clicked":[["answer","clicked"],["M ","false"],["B ","false"],["J ","false"],["N ","false"],["D ","false"],["O ","false"],["K ","false"],["C ","false"],["F ","false"],["I ","false"],["H ","false"],["G ","false"],["L ","false"],["E ","false"],["A ","false"]],"answer":["4"],"correct":1,"scaffold":"show-interactive","question":"end","scenario":"axis","graph":"linear","condition":"4","session":"bravo","experiment":"experiment","subject":"K2EGE","internal_node_id":"0.0-5.0-1.0","time_elapsed":453135,"trial_index":6,"trial_type":"html","url":"../views/src/external/stimulus.html","rt":10298},{"block":"linear_scaffolded","helps":0,"clicked":[["answer","clicked"],["M ","false"],["B ","false"],["J ","false"],["N ","false"],["D ","false"],["O ","false"],["K ","false"],["C ","false"],["F ","false"],["I ","false"],["H ","false"],["G ","false"],["L ","false"],["E ","false"],["A ","false"]],"answer":["A","E","I","L"],"correct":0,"scaffold":"show-interactive","question":"duration","scenario":"axis","graph":"linear","condition":"4","session":"bravo","experiment":"experiment","subject":"K2EGE","internal_node_id":"0.0-5.0-2.0","time_elapsed":479553,"trial_index":7,"trial_type":"html","url":"../views/src/external/stimulus.html","rt":25131},{"block":"linear_scaffolded","helps":0,"clicked":[["answer","clicked"],["M ","false"],["B ","false"],["J ","false"],["N ","false"],["D ","false"],["O ","false"],["K ","false"],["C ","false"],["F ","false"],["I ","false"],["H ","false"],["G ","false"],["L ","false"],["E ","false"],["A ","false"]],"answer":["9","3"],"correct":0,"scaffold":"show-interactive","question":"midpoint","scenario":"axis","graph":"linear","condition":"4","session":"bravo","experiment":"experiment","subject":"K2EGE","internal_node_id":"0.0-5.0-3.0","time_elapsed":509931,"trial_index":8,"trial_type":"html","url":"../views/src/external/stimulus.html","rt":29094},{"block":"linear_scaffolded","helps":0,"clicked":[["answer","clicked"],["M ","false"],["B ","false"],["J ","false"],["N ","false"],["D ","false"],["O ","false"],["K ","false"],["C ","false"],["F ","false"],["I ","false"],["H ","false"],["G ","false"],["L ","false"],["E ","false"],["A ","false"]],"answer":["7"],"correct":1,"scaffold":"show-interactive","question":"start+overlap","scenario":"axis","graph":"linear","condition":"4","session":"bravo","experiment":"experiment","subject":"K2EGE","internal_node_id":"0.0-5.0-4.0","time_elapsed":524540,"trial_index":9,"trial_type":"html","url":"../views/src/external/stimulus.html","rt":13331},{"block":"linear_testing","helps":0,"clicked":[["answer","clicked"],["M ","false"],["B ","false"],["J ","false"],["N ","false"],["D ","false"],["O ","false"],["K ","false"],["C ","false"],["F ","false"],["I ","false"],["H ","false"],["G ","false"],["L ","false"],["E ","false"],["A ","false"]],"answer":["F","M"],"correct":0,"scaffold":"none","question":"during","scenario":"axis","graph":"linear","condition":"4","session":"bravo","experiment":"experiment","subject":"K2EGE","internal_node_id":"0.0-6.0-7.0","time_elapsed":543579,"trial_index":10,"trial_type":"html","url":"../views/src/external/stimulus.html","rt":17764},{"block":"linear_testing","helps":0,"clicked":[["answer","clicked"],["M ","false"],["B ","false"],["J ","false"],["N ","false"],["D ","false"],["O ","false"],["K ","false"],["C ","false"],["F ","false"],["I ","false"],["H ","false"],["G ","false"],["L ","false"],["E ","false"],["A ","false"]],"answer":["M","O"],"correct":0,"scaffold":"none","question":"during+overlap","scenario":"axis","graph":"linear","condition":"4","session":"bravo","experiment":"experiment","subject":"K2EGE","internal_node_id":"0.0-6.0-3.0","time_elapsed":569006,"trial_index":11,"trial_type":"html","url":"../views/src/external/stimulus.html","rt":24148},{"block":"linear_testing","helps":0,"clicked":[["answer","clicked"],["M ","false"],["B ","false"],["J ","false"],["N ","false"],["D ","false"],["O ","false"],["K ","false"],["C ","false"],["F ","false"],["I ","false"],["H ","false"],["G ","false"],["L ","false"],["E ","false"],["A ","false"]],"answer":["C","F"],"correct":0,"scaffold":"none","question":"overlap+overlap","scenario":"axis","graph":"linear","condition":"4","session":"bravo","experiment":"experiment","subject":"K2EGE","internal_node_id":"0.0-6.0-2.0","time_elapsed":584599,"trial_index":12,"trial_type":"html","url":"../views/src/external/stimulus.html","rt":14325},{"block":"linear_testing","helps":0,"clicked":[["answer","clicked"],["M ","false"],["B ","false"],["J ","false"],["N ","false"],["D ","false"],["O ","false"],["K ","false"],["C ","false"],["F ","false"],["I ","false"],["H ","false"],["G ","false"],["L ","false"],["E ","false"],["A ","false"]],"answer":["2"],"correct":0,"scaffold":"none","question":"starts","scenario":"axis","graph":"linear","condition":"4","session":"bravo","experiment":"experiment","subject":"K2EGE","internal_node_id":"0.0-6.0-5.0","time_elapsed":602934,"trial_index":13,"trial_type":"html","url":"../views/src/external/stimulus.html","rt":17061},{"block":"linear_testing","helps":0,"clicked":[["answer","clicked"],["M ","false"],["B ","false"],["J ","false"],["N ","false"],["D ","false"],["O ","false"],["K ","false"],["C ","false"],["F ","false"],["I ","false"],["H ","false"],["G ","false"],["L ","false"],["E ","false"],["A ","false"]],"answer":["9"],"correct":1,"scaffold":"none","question":"start+duration","scenario":"axis","graph":"linear","condition":"4","session":"bravo","experiment":"experiment","subject":"K2EGE","internal_node_id":"0.0-6.0-0.0","time_elapsed":609486,"trial_index":14,"trial_type":"html","url":"../views/src/external/stimulus.html","rt":5105},{"block":"linear_testing","helps":0,"clicked":[["answer","clicked"],["M ","false"],["B ","false"],["J ","false"],["N ","false"],["D ","false"],["O ","false"],["K ","false"],["C ","false"],["F ","false"],["I ","false"],["H ","false"],["G ","false"],["L ","false"],["E ","false"],["A ","false"]],"answer":["H"],"correct":0,"scaffold":"none","question":"contain+duration","scenario":"axis","graph":"linear","condition":"4","session":"bravo","experiment":"experiment","subject":"K2EGE","internal_node_id":"0.0-6.0-4.0","time_elapsed":622952,"trial_index":15,"trial_type":"html","url":"../views/src/external/stimulus.html","rt":12165},{"block":"linear_testing","helps":0,"clicked":[["answer","clicked"],["M ","false"],["B ","false"],["J ","false"],["N ","false"],["D ","false"],["O ","false"],["K ","false"],["C ","false"],["F ","false"],["I ","false"],["H ","false"],["G ","false"],["L ","false"],["E ","false"],["A ","false"]],"answer":["G","O"],"correct":1,"scaffold":"none","question":"finishes","scenario":"axis","graph":"linear","condition":"4","session":"bravo","experiment":"experiment","subject":"K2EGE","internal_node_id":"0.0-6.0-6.0","time_elapsed":634769,"trial_index":16,"trial_type":"html","url":"../views/src/external/stimulus.html","rt":10542},{"block":"linear_testing","helps":0,"clicked":[["answer","clicked"],["M ","false"],["B ","false"],["J ","false"],["N ","false"],["D ","false"],["O ","false"],["K ","false"],["C ","false"],["F ","false"],["I ","false"],["H ","false"],["G ","false"],["L ","false"],["E ","false"],["A ","false"]],"answer":["C"],"correct":0,"scaffold":"none","question":"before+overlap","scenario":"axis","graph":"linear","condition":"4","session":"bravo","experiment":"experiment","subject":"K2EGE","internal_node_id":"0.0-6.0-1.0","time_elapsed":651968,"trial_index":17,"trial_type":"html","url":"../views/src/external/stimulus.html","rt":15898},{"block":"linear_testing","helps":0,"clicked":[["answer","clicked"],["M ","false"],["B ","false"],["J ","false"],["N ","false"],["D ","false"],["O ","false"],["K ","false"],["C ","false"],["F ","false"],["I ","false"],["H ","false"],["G ","false"],["L ","false"],["E ","false"],["A ","false"]],"answer":["A","L"],"correct":0,"scaffold":"none","question":"meets","scenario":"axis","graph":"linear","condition":"4","session":"bravo","experiment":"experiment","subject":"K2EGE","internal_node_id":"0.0-6.0-8.0","time_elapsed":666188,"trial_index":18,"trial_type":"html","url":"../views/src/external/stimulus.html","rt":12933},{"block":"linear_testing","helps":0,"clicked":[["answer","clicked"],["M ","false"],["B ","false"],["J ","false"],["N ","false"],["D ","false"],["O ","false"],["K ","false"],["C ","false"],["F ","false"],["I ","false"],["H ","false"],["G ","false"],["L ","false"],["E ","false"],["A ","false"]],"answer":["C"],"correct":0,"scaffold":"none","question":"starts+finishes","scenario":"axis","graph":"linear","condition":"4","session":"bravo","experiment":"experiment","subject":"K2EGE","internal_node_id":"0.0-6.0-9.0","time_elapsed":678910,"trial_index":19,"trial_type":"html","url":"../views/src/external/stimulus.html","rt":11429},{"condition":"4","session":"bravo","experiment":"experiment","subject":"K2EGE","internal_node_id":"0.0-7.0","time_elapsed":691336,"trial_index":20,"trial_type":"single-stim","block":"scenario-two","key_press":13,"stimulus":"img/longmire.png","rt":11420},{"block":"triangular_scaffolded","helps":0,"clicked":[["answer","clicked"],["A ","false"],["M ","false"],["D ","false"],["N ","false"],["B ","false"],["F ","false"],["H ","false"],["G ","false"],["O ","false"],["C ","false"],["J ","false"],["I ","false"],["E ","false"],["L ","false"],["K ","false"]],"answer":["M"],"correct":0,"scaffold":"show-interactive","question":"start","scenario":"longmire","graph":"triangular","condition":"4","session":"bravo","experiment":"experiment","subject":"K2EGE","internal_node_id":"0.0-8.0-0.0","time_elapsed":705424,"trial_index":21,"trial_type":"html","url":"../views/src/external/stimulus.html","rt":12806},{"block":"triangular_scaffolded","helps":0,"clicked":[["answer","clicked"],["A ","false"],["M ","false"],["D ","false"],["N ","false"],["B ","false"],["F ","false"],["H ","false"],["G ","false"],["O ","false"],["C ","false"],["J ","false"],["I ","false"],["E ","false"],["L ","false"],["K ","false"]],"answer":["D"],"correct":0,"scaffold":"show-interactive","question":"end","scenario":"longmire","graph":"triangular","condition":"4","session":"bravo","experiment":"experiment","subject":"K2EGE","internal_node_id":"0.0-8.0-1.0","time_elapsed":714467,"trial_index":22,"trial_type":"html","url":"../views/src/external/stimulus.html","rt":7771},{"block":"triangular_scaffolded","helps":0,"clicked":[["answer","clicked"],["A ","false"],["M ","false"],["D ","false"],["N ","false"],["B ","false"],["F ","false"],["H ","false"],["G ","false"],["O ","false"],["C ","false"],["J ","false"],["I ","false"],["E ","false"],["L ","false"],["K ","false"]],"answer":["B","H","N"],"correct":0,"scaffold":"show-interactive","question":"duration","scenario":"longmire","graph":"triangular","condition":"4","session":"bravo","experiment":"experiment","subject":"K2EGE","internal_node_id":"0.0-8.0-2.0","time_elapsed":724867,"trial_index":23,"trial_type":"html","url":"../views/src/external/stimulus.html","rt":9113},{"block":"triangular_scaffolded","helps":0,"clicked":[["answer","clicked"],["A ","false"],["M ","false"],["D ","false"],["N ","false"],["B ","false"],["F ","false"],["H ","false"],["G ","false"],["O ","false"],["C ","false"],["J ","false"],["I ","false"],["E ","false"],["L ","false"],["K ","false"]],"answer":["7"],"correct":0,"scaffold":"show-interactive","question":"midpoint","scenario":"longmire","graph":"triangular","condition":"4","session":"bravo","experiment":"experiment","subject":"K2EGE","internal_node_id":"0.0-8.0-3.0","time_elapsed":734742,"trial_index":24,"trial_type":"html","url":"../views/src/external/stimulus.html","rt":8594},{"block":"triangular_scaffolded","helps":0,"clicked":[["answer","clicked"],["A ","false"],["M ","false"],["D ","false"],["N ","false"],["B ","false"],["F ","false"],["H ","false"],["G ","false"],["O ","false"],["C ","false"],["J ","false"],["I ","false"],["E ","false"],["L ","false"],["K ","false"]],"answer":["D"],"correct":0,"scaffold":"show-interactive","question":"start+overlap","scenario":"longmire","graph":"triangular","condition":"4","session":"bravo","experiment":"experiment","subject":"K2EGE","internal_node_id":"0.0-8.0-4.0","time_elapsed":745473,"trial_index":25,"trial_type":"html","url":"../views/src/external/stimulus.html","rt":9440},{"block":"triangular_testing","helps":0,"answer":["M"],"clicked":[["answer","clicked"],["A ","false"],["M ","false"],["D ","false"],["N ","false"],["B ","false"],["F ","false"],["H ","false"],["G ","false"],["O ","false"],["C ","false"],["J ","false"],["I ","false"],["E ","false"],["L ","false"],["K ","false"]],"correct":0,"scaffold":"none","question":"before+overlap","scenario":"longmire","graph":"triangular","condition":"4","session":"bravo","experiment":"experiment","subject":"K2EGE","internal_node_id":"0.0-9.0-1.0","time_elapsed":756461,"trial_index":26,"trial_type":"html","url":"../views/src/external/stimulus.html","rt":9713},{"block":"triangular_testing","helps":0,"answer":["7","8"],"clicked":[["answer","clicked"],["A ","false"],["M ","false"],["D ","false"],["N ","false"],["B ","false"],["F ","false"],["H ","false"],["G ","false"],["O ","false"],["C ","false"],["J ","false"],["I ","false"],["E ","false"],["L ","false"],["K ","false"]],"correct":0,"scaffold":"none","question":"finishes","scenario":"longmire","graph":"triangular","condition":"4","session":"bravo","experiment":"experiment","subject":"K2EGE","internal_node_id":"0.0-9.0-6.0","time_elapsed":767621,"trial_index":27,"trial_type":"html","url":"../views/src/external/stimulus.html","rt":9878},{"block":"triangular_testing","helps":0,"answer":["F","G"],"clicked":[["answer","clicked"],["A ","false"],["M ","false"],["D ","false"],["N ","false"],["B ","false"],["F ","false"],["H ","false"],["G ","false"],["O ","false"],["C ","false"],["J ","false"],["I ","false"],["E ","false"],["L ","false"],["K ","false"]],"correct":0,"scaffold":"none","question":"overlap+overlap","scenario":"longmire","graph":"triangular","condition":"4","session":"bravo","experiment":"experiment","subject":"K2EGE","internal_node_id":"0.0-9.0-2.0","time_elapsed":779381,"trial_index":28,"trial_type":"html","url":"../views/src/external/stimulus.html","rt":10487},{"block":"triangular_testing","helps":0,"answer":["G"],"clicked":[["answer","clicked"],["A ","false"],["M ","false"],["D ","false"],["N ","false"],["B ","false"],["F ","false"],["H ","false"],["G ","false"],["O ","false"],["C ","false"],["J ","false"],["I ","false"],["E ","false"],["L ","false"],["K ","false"]],"correct":0,"scaffold":"none","question":"contain+duration","scenario":"longmire","graph":"triangular","condition":"4","session":"bravo","experiment":"experiment","subject":"K2EGE","internal_node_id":"0.0-9.0-4.0","time_elapsed":789493,"trial_index":29,"trial_type":"html","url":"../views/src/external/stimulus.html","rt":8834},{"block":"triangular_testing","helps":0,"answer":["C","H","M"],"clicked":[["answer","clicked"],["A ","false"],["M ","false"],["D ","false"],["N ","false"],["B ","false"],["F ","false"],["H ","false"],["G ","false"],["O ","false"],["C ","false"],["J ","false"],["I ","false"],["E ","false"],["L ","false"],["K ","false"]],"correct":0,"scaffold":"none","question":"start+duration","scenario":"longmire","graph":"triangular","condition":"4","session":"bravo","experiment":"experiment","subject":"K2EGE","internal_node_id":"0.0-9.0-0.0","time_elapsed":804844,"trial_index":30,"trial_type":"html","url":"../views/src/external/stimulus.html","rt":14073},{"block":"triangular_testing","helps":0,"answer":["B"],"clicked":[["answer","clicked"],["A ","false"],["M ","false"],["D ","false"],["N ","false"],["B ","false"],["F ","false"],["H ","false"],["G ","false"],["O ","false"],["C ","false"],["J ","false"],["I ","false"],["E ","false"],["L ","false"],["K ","false"]],"correct":0,"scaffold":"none","question":"during+overlap","scenario":"longmire","graph":"triangular","condition":"4","session":"bravo","experiment":"experiment","subject":"K2EGE","internal_node_id":"0.0-9.0-3.0","time_elapsed":813296,"trial_index":31,"trial_type":"html","url":"../views/src/external/stimulus.html","rt":7165},{"block":"triangular_testing","helps":0,"answer":["8","9","4","5"],"clicked":[["answer","clicked"],["A ","false"],["M ","false"],["D ","false"],["N ","false"],["B ","false"],["F ","false"],["H ","false"],["G ","false"],["O ","false"],["C ","false"],["J ","false"],["I ","false"],["E ","false"],["L ","false"],["K ","false"]],"correct":0,"scaffold":"none","question":"starts","scenario":"longmire","graph":"triangular","condition":"4","session":"bravo","experiment":"experiment","subject":"K2EGE","internal_node_id":"0.0-9.0-5.0","time_elapsed":822676,"trial_index":32,"trial_type":"html","url":"../views/src/external/stimulus.html","rt":8097},{"block":"triangular_testing","helps":0,"answer":["B"],"clicked":[["answer","clicked"],["A ","false"],["M ","false"],["D ","false"],["N ","false"],["B ","false"],["F ","false"],["H ","false"],["G ","false"],["O ","false"],["C ","false"],["J ","false"],["I ","false"],["E ","false"],["L ","false"],["K ","false"]],"correct":0,"scaffold":"none","question":"meets","scenario":"longmire","graph":"triangular","condition":"4","session":"bravo","experiment":"experiment","subject":"K2EGE","internal_node_id":"0.0-9.0-8.0","time_elapsed":831825,"trial_index":33,"trial_type":"html","url":"../views/src/external/stimulus.html","rt":7877},{"block":"triangular_testing","helps":0,"answer":["C","F"],"clicked":[["answer","clicked"],["A ","false"],["M ","false"],["D ","false"],["N ","false"],["B ","false"],["F ","false"],["H ","false"],["G ","false"],["O ","false"],["C ","false"],["J ","false"],["I ","false"],["E ","false"],["L ","false"],["K ","false"]],"correct":0,"scaffold":"none","question":"starts+finishes","scenario":"longmire","graph":"triangular","condition":"4","session":"bravo","experiment":"experiment","subject":"K2EGE","internal_node_id":"0.0-9.0-9.0","time_elapsed":844561,"trial_index":34,"trial_type":"html","url":"../views/src/external/stimulus.html","rt":11455},{"block":"triangular_testing","helps":0,"answer":["C","N"],"clicked":[["answer","clicked"],["A ","false"],["M ","false"],["D ","false"],["N ","false"],["B ","false"],["F ","false"],["H ","false"],["G ","false"],["O ","false"],["C ","false"],["J ","false"],["I ","false"],["E ","false"],["L ","false"],["K ","false"]],"correct":0,"scaffold":"none","question":"during","scenario":"longmire","graph":"triangular","condition":"4","session":"bravo","experiment":"experiment","subject":"K2EGE","internal_node_id":"0.0-9.0-7.0","time_elapsed":852658,"trial_index":35,"trial_type":"html","url":"../views/src/external/stimulus.html","rt":6820},{"condition":"4","session":"bravo","experiment":"experiment","subject":"K2EGE","internal_node_id":"0.0-10.0","time_elapsed":858023,"trial_index":36,"trial_type":"single-stim","block":"scenario-draw","key_press":13,"stimulus":"img/jones.png","rt":4359},{"condition":"4","session":"bravo","experiment":"experiment","subject":"K2EGE","internal_node_id":"0.0-11.0","time_elapsed":1542947,"trial_index":37,"trial_type":"html","block":"instructions_drawing","url":"../views/src/external/instructions_draw.html","rt":683764},{"block":"drawingTest","clicked":[["answer","clicked"]],"answer":["B1"],"correct":0,"scaffold":"none","question":"duration","scenario":"jones","graph":"none","condition":"4","session":"bravo","experiment":"experiment","subject":"K2EGE","internal_node_id":"0.0-12.0","time_elapsed":1552481,"trial_index":38,"trial_type":"html","url":"../views/src/external/stimulus.html","rt":8137},{"block":"drawingTest","clicked":[["answer","clicked"]],"answer":["Chris","3-4pm"],"correct":1,"scaffold":"none","question":"overlap","scenario":"jones","graph":"none","condition":"4","session":"bravo","experiment":"experiment","subject":"K2EGE","internal_node_id":"0.0-13.0","time_elapsed":1577025,"trial_index":39,"trial_type":"html","url":"../views/src/external/stimulus.html","rt":23234},{"condition":"4","session":"bravo","experiment":"experiment","subject":"K2EGE","internal_node_id":"0.0-14.0","time_elapsed":1606439,"trial_index":40,"trial_type":"survey-text","block":"demo-1","responses":"{\"Q0\":\"18\",\"Q1\":\"usa\"}","rt":28406},{"condition":"4","session":"bravo","experiment":"experiment","subject":"K2EGE","internal_node_id":"0.0-15.0","time_elapsed":1624197,"trial_index":41,"trial_type":"survey-multi-choice","block":"demo-2","responses":"{\"Q0\":\"Spanish\",\"Q1\":\"First\",\"Q2\":\"Biomedical \u0026 Health Sciences\",\"Q3\":\"Female\",\"Q4\":\"the first one (linear\"}","rt":16740},{"condition":"4","session":"bravo","experiment":"experiment","subject":"K2EGE","internal_node_id":"0.0-16.0","time_elapsed":1630483,"trial_index":42,"trial_type":"html","block":"debrief","url":"../views/src/external/debrief.html","rt":5006}],"__v":0}
{"_id":{"$oid":"58b88f86cdc49200040b0c08"},"data":[{"condition":"2","session":"bravo","experiment":"experiment","subject":"A5G40","internal_node_id":"0.0-0.0","time_elapsed":260287,"trial_index":0,"trial_type":"single-stim","block":"phone","key_press":13,"stimulus":"img/phone.png","rt":260278},{"condition":"2","session":"bravo","experiment":"experiment","subject":"A5G40","internal_node_id":"0.0-1.0","time_elapsed":266580,"trial_index":1,"trial_type":"html","block":"consent","url":"../views/src/external/consent.html","rt":4907},{"condition":"2","session":"bravo","experiment":"experiment","subject":"A5G40","internal_node_id":"0.0-2.0","time_elapsed":275892,"trial_index":2,"trial_type":"survey-text","block":"codes","responses":"{\"Q0\":\"bravo\",\"Q1\":\"2\"}","rt":8298},{"condition":"2","session":"bravo","experiment":"experiment","subject":"A5G40","internal_node_id":"0.0-3.0","time_elapsed":281963,"trial_index":3,"trial_type":"html","block":"instructions_lab","url":"../views/src/external/instructions_lab.html","rt":4903},{"condition":"2","session":"bravo","experiment":"experiment","subject":"A5G40","internal_node_id":"0.0-4.0","time_elapsed":286896,"trial_index":4,"trial_type":"single-stim","block":"scenario-one","key_press":13,"stimulus":"img/longmire.png","rt":3930},{"block":"linear_scaffolded","helps":0,"clicked":[["answer","clicked"],["A ","false"],["M ","false"],["D ","false"],["N ","false"],["B ","false"],["F ","false"],["H ","false"],["G ","false"],["O ","false"],["C ","false"],["J ","false"],["I ","false"],["E ","false"],["L ","false"],["K ","false"]],"answer":["C","D","L"],"correct":1,"scaffold":"describe-how","question":"start","scenario":"longmire","graph":"linear","condition":"2","session":"bravo","experiment":"experiment","subject":"A5G40","internal_node_id":"0.0-5.0-0.0","time_elapsed":313627,"trial_index":5,"trial_type":"html","url":"../views/src/external/stimulus.html","rt":25240},{"block":"linear_scaffolded","helps":0,"clicked":[["answer","clicked"],["A ","false"],["M ","false"],["D ","false"],["N ","false"],["B ","false"],["F ","false"],["H ","false"],["G ","false"],["O ","false"],["C ","false"],["J ","false"],["I ","false"],["E ","false"],["L ","false"],["K ","false"]],"answer":["D","H","J","K","L","N","O"],"correct":0,"scaffold":"describe-how","question":"end","scenario":"longmire","graph":"linear","condition":"2","session":"bravo","experiment":"experiment","subject":"A5G40","internal_node_id":"0.0-5.0-1.0","time_elapsed":353246,"trial_index":6,"trial_type":"html","url":"../views/src/external/stimulus.html","rt":38340},{"block":"linear_scaffolded","helps":0,"clicked":[["answer","clicked"],["A ","false"],["M ","false"],["D ","false"],["N ","false"],["B ","false"],["F ","false"],["H ","false"],["G ","false"],["O ","false"],["C ","false"],["J ","false"],["I ","false"],["E ","false"],["L ","false"],["K ","false"]],"answer":["G","O"],"correct":1,"scaffold":"describe-how","question":"duration","scenario":"longmire","graph":"linear","condition":"2","session":"bravo","experiment":"experiment","subject":"A5G40","internal_node_id":"0.0-5.0-2.0","time_elapsed":373530,"trial_index":7,"trial_type":"html","url":"../views/src/external/stimulus.html","rt":19010},{"block":"linear_scaffolded","helps":0,"clicked":[["answer","clicked"],["A ","false"],["M ","false"],["D ","false"],["N ","false"],["B ","false"],["F ","false"],["H ","false"],["G ","false"],["O ","false"],["C ","false"],["J ","false"],["I ","false"],["E ","false"],["L ","false"],["K ","false"]],"answer":["1"],"correct":1,"scaffold":"describe-how","question":"midpoint","scenario":"longmire","graph":"linear","condition":"2","session":"bravo","experiment":"experiment","subject":"A5G40","internal_node_id":"0.0-5.0-3.0","time_elapsed":398816,"trial_index":8,"trial_type":"html","url":"../views/src/external/stimulus.html","rt":23939},{"block":"linear_scaffolded","helps":0,"clicked":[["answer","clicked"],["A ","false"],["M ","false"],["D ","false"],["N ","false"],["B ","false"],["F ","false"],["H ","false"],["G ","false"],["O ","false"],["C ","false"],["J ","false"],["I ","false"],["E ","false"],["L ","false"],["K ","false"]],"answer":["A"],"correct":1,"scaffold":"describe-how","question":"start+overlap","scenario":"longmire","graph":"linear","condition":"2","session":"bravo","experiment":"experiment","subject":"A5G40","internal_node_id":"0.0-5.0-4.0","time_elapsed":418888,"trial_index":9,"trial_type":"html","url":"../views/src/external/stimulus.html","rt":18794},{"block":"linear_testing","helps":0,"clicked":[["answer","clicked"],["A ","false"],["M ","false"],["D ","false"],["N ","false"],["B ","false"],["F ","false"],["H ","false"],["G ","false"],["O ","false"],["C ","false"],["J ","false"],["I ","false"],["E ","false"],["L ","false"],["K ","false"]],"answer":["6"],"correct":0,"scaffold":"none","question":"starts","scenario":"longmire","graph":"linear","condition":"2","session":"bravo","experiment":"experiment","subject":"A5G40","internal_node_id":"0.0-6.0-5.0","time_elapsed":470052,"trial_index":10,"trial_type":"html","url":"../views/src/external/stimulus.html","rt":49887},{"block":"linear_testing","helps":0,"clicked":[["answer","clicked"],["A ","false"],["M ","false"],["D ","false"],["N ","false"],["B ","false"],["F ","false"],["H ","false"],["G ","false"],["O ","false"],["C ","false"],["J ","false"],["I ","false"],["E ","false"],["L ","false"],["K ","false"]],"answer":["C","F","G"],"correct":0,"scaffold":"none","question":"start+duration","scenario":"longmire","graph":"linear","condition":"2","session":"bravo","experiment":"experiment","subject":"A5G40","internal_node_id":"0.0-6.0-0.0","time_elapsed":536392,"trial_index":11,"trial_type":"html","url":"../views/src/external/stimulus.html","rt":65058},{"block":"linear_testing","helps":0,"clicked":[["answer","clicked"],["A ","false"],["M ","false"],["D ","false"],["N ","false"],["B ","false"],["F ","false"],["H ","false"],["G ","false"],["O ","false"],["C ","false"],["J ","false"],["I ","false"],["E ","false"],["L ","false"],["K ","false"]],"answer":["C"],"correct":1,"scaffold":"none","question":"starts+finishes","scenario":"longmire","graph":"linear","condition":"2","session":"bravo","experiment":"experiment","subject":"A5G40","internal_node_id":"0.0-6.0-9.0","time_elapsed":556659,"trial_index":12,"trial_type":"html","url":"../views/src/external/stimulus.html","rt":18809},{"block":"linear_testing","helps":0,"clicked":[["answer","clicked"],["A ","false"],["M ","false"],["D ","false"],["N ","false"],["B ","false"],["F ","false"],["H ","false"],["G ","false"],["O ","false"],["C ","false"],["J ","false"],["I ","false"],["E ","false"],["L ","false"],["K ","false"]],"answer":["A","H","M","N"],"correct":0,"scaffold":"none","question":"meets","scenario":"longmire","graph":"linear","condition":"2","session":"bravo","experiment":"experiment","subject":"A5G40","internal_node_id":"0.0-6.0-8.0","time_elapsed":607726,"trial_index":13,"trial_type":"html","url":"../views/src/external/stimulus.html","rt":49786},{"block":"linear_testing","helps":0,"clicked":[["answer","clicked"],["A ","false"],["M ","false"],["D ","false"],["N ","false"],["B ","false"],["F ","false"],["H ","false"],["G ","false"],["O ","false"],["C ","false"],["J ","false"],["I ","false"],["E ","false"],["L ","false"],["K ","false"]],"answer":["A","G"],"correct":0,"scaffold":"none","question":"overlap+overlap","scenario":"longmire","graph":"linear","condition":"2","session":"bravo","experiment":"experiment","subject":"A5G40","internal_node_id":"0.0-6.0-2.0","time_elapsed":644890,"trial_index":14,"trial_type":"html","url":"../views/src/external/stimulus.html","rt":35627},{"block":"linear_testing","helps":0,"clicked":[["answer","clicked"],["A ","false"],["M ","false"],["D ","false"],["N ","false"],["B ","false"],["F ","false"],["H ","false"],["G ","false"],["O ","false"],["C ","false"],["J ","false"],["I ","false"],["E ","false"],["L ","false"],["K ","false"]],"answer":["G","O"],"correct":1,"scaffold":"none","question":"contain+duration","scenario":"longmire","graph":"linear","condition":"2","session":"bravo","experiment":"experiment","subject":"A5G40","internal_node_id":"0.0-6.0-4.0","time_elapsed":674510,"trial_index":15,"trial_type":"html","url":"../views/src/external/stimulus.html","rt":28331},{"block":"linear_testing","helps":0,"clicked":[["answer","clicked"],["A ","false"],["M ","false"],["D ","false"],["N ","false"],["B ","false"],["F ","false"],["H ","false"],["G ","false"],["O ","false"],["C ","false"],["J ","false"],["I ","false"],["E ","false"],["L ","false"],["K ","false"]],"answer":["4"],"correct":0,"scaffold":"none","question":"finishes","scenario":"longmire","graph":"linear","condition":"2","session":"bravo","experiment":"experiment","subject":"A5G40","internal_node_id":"0.0-6.0-6.0","time_elapsed":704926,"trial_index":16,"trial_type":"html","url":"../views/src/external/stimulus.html","rt":29146},{"block":"linear_testing","helps":0,"clicked":[["answer","clicked"],["A ","false"],["M ","false"],["D ","false"],["N ","false"],["B ","false"],["F ","false"],["H ","false"],["G ","false"],["O ","false"],["C ","false"],["J ","false"],["I ","false"],["E ","false"],["L ","false"],["K ","false"]],"answer":["C","F","G","H","I","J","L","O"],"correct":0,"scaffold":"none","question":"during","scenario":"longmire","graph":"linear","condition":"2","session":"bravo","experiment":"experiment","subject":"A5G40","internal_node_id":"0.0-6.0-7.0","time_elapsed":765478,"trial_index":17,"trial_type":"html","url":"../views/src/external/stimulus.html","rt":59278},{"block":"linear_testing","helps":0,"clicked":[["answer","clicked"],["A ","false"],["M ","false"],["D ","false"],["N ","false"],["B ","false"],["F ","false"],["H ","false"],["G ","false"],["O ","false"],["C ","false"],["J ","false"],["I ","false"],["E ","false"],["L ","false"],["K ","false"]],"answer":["K","L"],"correct":1,"scaffold":"none","question":"during+overlap","scenario":"longmire","graph":"linear","condition":"2","session":"bravo","experiment":"experiment","subject":"A5G40","internal_node_id":"0.0-6.0-3.0","time_elapsed":807238,"trial_index":18,"trial_type":"html","url":"../views/src/external/stimulus.html","rt":40370},{"block":"linear_testing","helps":0,"clicked":[["answer","clicked"],["A ","false"],["M ","false"],["D ","false"],["N ","false"],["B ","false"],["F ","false"],["H ","false"],["G ","false"],["O ","false"],["C ","false"],["J ","false"],["I ","false"],["E ","false"],["L ","false"],["K ","false"]],"answer":["A","B","C","D","F","I"],"correct":1,"scaffold":"none","question":"before+overlap","scenario":"longmire","graph":"linear","condition":"2","session":"bravo","experiment":"experiment","subject":"A5G40","internal_node_id":"0.0-6.0-1.0","time_elapsed":857048,"trial_index":19,"trial_type":"html","url":"../views/src/external/stimulus.html","rt":48517},{"condition":"2","session":"bravo","experiment":"experiment","subject":"A5G40","internal_node_id":"0.0-7.0","time_elapsed":862340,"trial_index":20,"trial_type":"single-stim","block":"scenario-two","key_press":13,"stimulus":"img/axis.png","rt":4286},{"block":"triangular_scaffolded","helps":0,"clicked":[["answer","clicked"],["M ","false"],["B ","false"],["J ","false"],["N ","false"],["D ","false"],["O ","false"],["K ","false"],["C ","false"],["F ","false"],["I ","false"],["H ","false"],["G ","false"],["L ","false"],["E ","false"],["A ","false"]],"answer":["G"],"correct":0,"scaffold":"describe-how","question":"start","scenario":"axis","graph":"triangular","condition":"2","session":"bravo","experiment":"experiment","subject":"A5G40","internal_node_id":"0.0-8.0-0.0","time_elapsed":877271,"trial_index":21,"trial_type":"html","url":"../views/src/external/stimulus.html","rt":13653},{"block":"triangular_scaffolded","helps":0,"clicked":[["answer","clicked"],["M ","false"],["B ","false"],["J ","false"],["N ","false"],["D ","false"],["O ","false"],["K ","false"],["C ","false"],["F ","false"],["I ","false"],["H ","false"],["G ","false"],["L ","false"],["E ","false"],["A ","false"]],"answer":["6"],"correct":0,"scaffold":"describe-how","question":"end","scenario":"axis","graph":"triangular","condition":"2","session":"bravo","experiment":"experiment","subject":"A5G40","internal_node_id":"0.0-8.0-1.0","time_elapsed":958745,"trial_index":22,"trial_type":"html","url":"../views/src/external/stimulus.html","rt":80199},{"block":"triangular_scaffolded","helps":0,"clicked":[["answer","clicked"],["M ","false"],["B ","false"],["J ","false"],["N ","false"],["D ","false"],["O ","false"],["K ","false"],["C ","false"],["F ","false"],["I ","false"],["H ","false"],["G ","false"],["L ","false"],["E ","false"],["A ","false"]],"answer":["B","G","M"],"correct":0,"scaffold":"describe-how","question":"duration","scenario":"axis","graph":"triangular","condition":"2","session":"bravo","experiment":"experiment","subject":"A5G40","internal_node_id":"0.0-8.0-2.0","time_elapsed":972257,"trial_index":23,"trial_type":"html","url":"../views/src/external/stimulus.html","rt":12121},{"block":"triangular_scaffolded","helps":0,"clicked":[["answer","clicked"],["M ","false"],["B ","false"],["J ","false"],["N ","false"],["D ","false"],["O ","false"],["K ","false"],["C ","false"],["F ","false"],["I ","false"],["H ","false"],["G ","false"],["L ","false"],["E ","false"],["A ","false"]],"answer":["8"],"correct":1,"scaffold":"describe-how","question":"midpoint","scenario":"axis","graph":"triangular","condition":"2","session":"bravo","experiment":"experiment","subject":"A5G40","internal_node_id":"0.0-8.0-3.0","time_elapsed":986817,"trial_index":24,"trial_type":"html","url":"../views/src/external/stimulus.html","rt":13286},{"block":"triangular_scaffolded","helps":0,"clicked":[["answer","clicked"],["M ","false"],["B ","false"],["J ","false"],["N ","false"],["D ","false"],["O ","false"],["K ","false"],["C ","false"],["F ","false"],["I ","false"],["H ","false"],["G ","false"],["L ","false"],["E ","false"],["A ","false"]],"answer":["10"],"correct":0,"scaffold":"describe-how","question":"start+overlap","scenario":"axis","graph":"triangular","condition":"2","session":"bravo","experiment":"experiment","subject":"A5G40","internal_node_id":"0.0-8.0-4.0","time_elapsed":1014413,"trial_index":25,"trial_type":"html","url":"../views/src/external/stimulus.html","rt":26316},{"block":"triangular_testing","helps":0,"answer":["B"],"clicked":[["answer","clicked"],["M ","false"],["B ","false"],["J ","false"],["N ","false"],["D ","false"],["O ","false"],["K ","false"],["C ","false"],["F ","false"],["I ","false"],["H ","false"],["G ","false"],["L ","false"],["E ","false"],["A ","false"]],"correct":0,"scaffold":"none","question":"overlap+overlap","scenario":"axis","graph":"triangular","condition":"2","session":"bravo","experiment":"experiment","subject":"A5G40","internal_node_id":"0.0-9.0-2.0","time_elapsed":1025468,"trial_index":26,"trial_type":"html","url":"../views/src/external/stimulus.html","rt":9777},{"block":"triangular_testing","helps":0,"answer":["10"],"clicked":[["answer","clicked"],["M ","false"],["B ","false"],["J ","false"],["N ","false"],["D ","false"],["O ","false"],["K ","false"],["C ","false"],["F ","false"],["I ","false"],["H ","false"],["G ","false"],["L ","false"],["E ","false"],["A ","false"]],"correct":0,"scaffold":"none","question":"start+duration","scenario":"axis","graph":"triangular","condition":"2","session":"bravo","experiment":"experiment","subject":"A5G40","internal_node_id":"0.0-9.0-0.0","time_elapsed":1038388,"trial_index":27,"trial_type":"html","url":"../views/src/external/stimulus.html","rt":11632},{"block":"triangular_testing","helps":0,"answer":["3"],"clicked":[["answer","clicked"],["M ","false"],["B ","false"],["J ","false"],["N ","false"],["D ","false"],["O ","false"],["K ","false"],["C ","false"],["F ","false"],["I ","false"],["H ","false"],["G ","false"],["L ","false"],["E ","false"],["A ","false"]],"correct":0,"scaffold":"none","question":"starts","scenario":"axis","graph":"triangular","condition":"2","session":"bravo","experiment":"experiment","subject":"A5G40","internal_node_id":"0.0-9.0-5.0","time_elapsed":1057094,"trial_index":28,"trial_type":"html","url":"../views/src/external/stimulus.html","rt":17424},{"block":"triangular_testing","helps":0,"answer":["C","D","G","H","N"],"clicked":[["answer","clicked"],["M ","false"],["B ","false"],["J ","false"],["N ","false"],["D ","false"],["O ","false"],["K ","false"],["C ","false"],["F ","false"],["I ","false"],["H ","false"],["G ","false"],["L ","false"],["E ","false"],["A ","false"]],"correct":0,"scaffold":"none","question":"meets","scenario":"axis","graph":"triangular","condition":"2","session":"bravo","experiment":"experiment","subject":"A5G40","internal_node_id":"0.0-9.0-8.0","time_elapsed":1090416,"trial_index":29,"trial_type":"html","url":"../views/src/external/stimulus.html","rt":32028},{"block":"triangular_testing","helps":0,"answer":["A","E"],"clicked":[["answer","clicked"],["M ","false"],["B ","false"],["J ","false"],["N ","false"],["D ","false"],["O ","false"],["K ","false"],["C ","false"],["F ","false"],["I ","false"],["H ","false"],["G ","false"],["L ","false"],["E ","false"],["A ","false"]],"correct":0,"scaffold":"none","question":"during","scenario":"axis","graph":"triangular","condition":"2","session":"bravo","experiment":"experiment","subject":"A5G40","internal_node_id":"0.0-9.0-7.0","time_elapsed":1121224,"trial_index":30,"trial_type":"html","url":"../views/src/external/stimulus.html","rt":29522},{"block":"triangular_testing","helps":0,"answer":["O"],"clicked":[["answer","clicked"],["M ","false"],["B ","false"],["J ","false"],["N ","false"],["D ","false"],["O ","false"],["K ","false"],["C ","false"],["F ","false"],["I ","false"],["H ","false"],["G ","false"],["L ","false"],["E ","false"],["A ","false"]],"correct":0,"scaffold":"none","question":"finishes","scenario":"axis","graph":"triangular","condition":"2","session":"bravo","experiment":"experiment","subject":"A5G40","internal_node_id":"0.0-9.0-6.0","time_elapsed":1143402,"trial_index":31,"trial_type":"html","url":"../views/src/external/stimulus.html","rt":20896},{"block":"triangular_testing","helps":0,"answer":["G","I"],"clicked":[["answer","clicked"],["M ","false"],["B ","false"],["J ","false"],["N ","false"],["D ","false"],["O ","false"],["K ","false"],["C ","false"],["F ","false"],["I ","false"],["H ","false"],["G ","false"],["L ","false"],["E ","false"],["A ","false"]],"correct":0,"scaffold":"none","question":"before+overlap","scenario":"axis","graph":"triangular","condition":"2","session":"bravo","experiment":"experiment","subject":"A5G40","internal_node_id":"0.0-9.0-1.0","time_elapsed":1151515,"trial_index":32,"trial_type":"html","url":"../views/src/external/stimulus.html","rt":6831},{"block":"triangular_testing","helps":0,"answer":["E"],"clicked":[["answer","clicked"],["M ","false"],["B ","false"],["J ","false"],["N ","false"],["D ","false"],["O ","false"],["K ","false"],["C ","false"],["F ","false"],["I ","false"],["H ","false"],["G ","false"],["L ","false"],["E ","false"],["A ","false"]],"correct":0,"scaffold":"none","question":"during+overlap","scenario":"axis","graph":"triangular","condition":"2","session":"bravo","experiment":"experiment","subject":"A5G40","internal_node_id":"0.0-9.0-3.0","time_elapsed":1171014,"trial_index":33,"trial_type":"html","url":"../views/src/external/stimulus.html","rt":18209},{"block":"triangular_testing","helps":0,"answer":["M"],"clicked":[["answer","clicked"],["M ","false"],["B ","false"],["J ","false"],["N ","false"],["D ","false"],["O ","false"],["K ","false"],["C ","false"],["F ","false"],["I ","false"],["H ","false"],["G ","false"],["L ","false"],["E ","false"],["A ","false"]],"correct":0,"scaffold":"none","question":"starts+finishes","scenario":"axis","graph":"triangular","condition":"2","session":"bravo","experiment":"experiment","subject":"A5G40","internal_node_id":"0.0-9.0-9.0","time_elapsed":1187682,"trial_index":34,"trial_type":"html","url":"../views/src/external/stimulus.html","rt":15388},{"block":"triangular_testing","helps":0,"answer":["I","M"],"clicked":[["answer","clicked"],["M ","false"],["B ","false"],["J ","false"],["N ","false"],["D ","false"],["O ","false"],["K ","false"],["C ","false"],["F ","false"],["I ","false"],["H ","false"],["G ","false"],["L ","false"],["E ","false"],["A ","false"]],"correct":0,"scaffold":"none","question":"contain+duration","scenario":"axis","graph":"triangular","condition":"2","session":"bravo","experiment":"experiment","subject":"A5G40","internal_node_id":"0.0-9.0-4.0","time_elapsed":1191677,"trial_index":35,"trial_type":"html","url":"../views/src/external/stimulus.html","rt":2719},{"condition":"2","session":"bravo","experiment":"experiment","subject":"A5G40","internal_node_id":"0.0-10.0","time_elapsed":1198001,"trial_index":36,"trial_type":"single-stim","block":"scenario-draw","key_press":13,"stimulus":"img/jones.png","rt":5319},{"condition":"2","session":"bravo","experiment":"experiment","subject":"A5G40","internal_node_id":"0.0-11.0","time_elapsed":1667452,"trial_index":37,"trial_type":"html","block":"instructions_drawing","url":"../views/src/external/instructions_draw.html","rt":468314},{"block":"drawingTest","clicked":[["answer","clicked"]],"answer":["G3"],"correct":0,"scaffold":"none","question":"duration","scenario":"jones","graph":"none","condition":"2","session":"bravo","experiment":"experiment","subject":"A5G40","internal_node_id":"0.0-12.0","time_elapsed":1674153,"trial_index":38,"trial_type":"html","url":"../views/src/external/stimulus.html","rt":5337},{"block":"drawingTest","clicked":[["answer","clicked"]],"answer":["Chris","Xiao"],"correct":0,"scaffold":"none","question":"overlap","scenario":"jones","graph":"none","condition":"2","session":"bravo","experiment":"experiment","subject":"A5G40","internal_node_id":"0.0-13.0","time_elapsed":1693862,"trial_index":39,"trial_type":"html","url":"../views/src/external/stimulus.html","rt":18419},{"condition":"2","session":"bravo","experiment":"experiment","subject":"A5G40","internal_node_id":"0.0-14.0","time_elapsed":1705426,"trial_index":40,"trial_type":"survey-text","block":"demo-1","responses":"{\"Q0\":\"21\",\"Q1\":\"Hong Kong\"}","rt":10556},{"condition":"2","session":"bravo","experiment":"experiment","subject":"A5G40","internal_node_id":"0.0-15.0","time_elapsed":1729114,"trial_index":41,"trial_type":"survey-multi-choice","block":"demo-2","responses":"{\"Q0\":\"Mandarin or Cantonese\",\"Q1\":\"Fourth\",\"Q2\":\"Social Sciences (incl. CogSci)\",\"Q3\":\"Male\",\"Q4\":\"the first one (linear\"}","rt":22666},{"condition":"2","session":"bravo","experiment":"experiment","subject":"A5G40","internal_node_id":"0.0-16.0","time_elapsed":1732827,"trial_index":42,"trial_type":"html","block":"debrief","url":"../views/src/external/debrief.html","rt":2559}],"__v":0}
{"_id":{"$oid":"58b88fd5cdc49200040b0c09"},"data":[{"condition":"4","session":"bravo","experiment":"experiment","subject":"XDJJL","internal_node_id":"0.0-0.0","time_elapsed":86302,"trial_index":0,"trial_type":"single-stim","block":"phone","key_press":13,"stimulus":"img/phone.png","rt":86293},{"condition":"4","session":"bravo","experiment":"experiment","subject":"XDJJL","internal_node_id":"0.0-1.0","time_elapsed":105756,"trial_index":1,"trial_type":"html","block":"consent","url":"../views/src/external/consent.html","rt":18172},{"condition":"4","session":"bravo","experiment":"experiment","subject":"XDJJL","internal_node_id":"0.0-2.0","time_elapsed":116353,"trial_index":2,"trial_type":"survey-text","block":"codes","responses":"{\"Q0\":\"bravo\",\"Q1\":\"4\"}","rt":9586},{"condition":"4","session":"bravo","experiment":"experiment","subject":"XDJJL","internal_node_id":"0.0-3.0","time_elapsed":144596,"trial_index":3,"trial_type":"html","block":"instructions_lab","url":"../views/src/external/instructions_lab.html","rt":27103},{"condition":"4","session":"bravo","experiment":"experiment","subject":"XDJJL","internal_node_id":"0.0-4.0","time_elapsed":162505,"trial_index":4,"trial_type":"single-stim","block":"scenario-one","key_press":13,"stimulus":"img/longmire.png","rt":16906},{"block":"linear_scaffolded","helps":0,"clicked":[["answer","clicked"],["A ","false"],["M ","false"],["D ","false"],["N ","false"],["B ","false"],["F ","false"],["H ","false"],["G ","false"],["O ","false"],["C ","false"],["J ","false"],["I ","false"],["E ","false"],["L ","false"],["K ","false"]],"answer":["C","L"],"correct":0,"scaffold":"show-interactive","question":"start","scenario":"longmire","graph":"linear","condition":"4","session":"bravo","experiment":"experiment","subject":"XDJJL","internal_node_id":"0.0-5.0-0.0","time_elapsed":180979,"trial_index":5,"trial_type":"html","url":"../views/src/external/stimulus.html","rt":16912},{"block":"linear_scaffolded","helps":0,"clicked":[["answer","clicked"],["A ","false"],["M ","false"],["D ","false"],["N ","false"],["B ","false"],["F ","false"],["H ","false"],["G ","false"],["O ","false"],["C ","false"],["J ","false"],["I ","false"],["E ","false"],["L ","false"],["K ","false"]],"answer":["H","J","L","M","N","O"],"correct":0,"scaffold":"show-interactive","question":"end","scenario":"longmire","graph":"linear","condition":"4","session":"bravo","experiment":"experiment","subject":"XDJJL","internal_node_id":"0.0-5.0-1.0","time_elapsed":223886,"trial_index":6,"trial_type":"html","url":"../views/src/external/stimulus.html","rt":41622},{"block":"linear_scaffolded","helps":0,"clicked":[["answer","clicked"],["A ","false"],["M ","false"],["D ","false"],["N ","false"],["B ","false"],["F ","false"],["H ","false"],["G ","false"],["O ","false"],["C ","false"],["J ","false"],["I ","false"],["E ","false"],["L ","false"],["K ","false"]],"answer":["C","E","G","I","J","K","L","O"],"correct":0,"scaffold":"show-interactive","question":"duration","scenario":"longmire","graph":"linear","condition":"4","session":"bravo","experiment":"experiment","subject":"XDJJL","internal_node_id":"0.0-5.0-2.0","time_elapsed":309764,"trial_index":7,"trial_type":"html","url":"../views/src/external/stimulus.html","rt":84599},{"block":"linear_scaffolded","helps":0,"clicked":[["answer","clicked"],["A ","false"],["M ","false"],["D ","false"],["N ","false"],["B ","false"],["F ","false"],["H ","false"],["G ","false"],["O ","false"],["C ","false"],["J ","false"],["I ","false"],["E ","false"],["L ","false"],["K ","false"]],"answer":["12"],"correct":0,"scaffold":"show-interactive","question":"midpoint","scenario":"longmire","graph":"linear","condition":"4","session":"bravo","experiment":"experiment","subject":"XDJJL","internal_node_id":"0.0-5.0-3.0","time_elapsed":331609,"trial_index":8,"trial_type":"html","url":"../views/src/external/stimulus.html","rt":20381},{"block":"linear_scaffolded","helps":0,"clicked":[["answer","clicked"],["A ","false"],["M ","false"],["D ","false"],["N ","false"],["B ","false"],["F ","false"],["H ","false"],["G ","false"],["O ","false"],["C ","false"],["J ","false"],["I ","false"],["E ","false"],["L ","false"],["K ","false"]],"answer":["A"],"correct":1,"scaffold":"show-interactive","question":"start+overlap","scenario":"longmire","graph":"linear","condition":"4","session":"bravo","experiment":"experiment","subject":"XDJJL","internal_node_id":"0.0-5.0-4.0","time_elapsed":345150,"trial_index":9,"trial_type":"html","url":"../views/src/external/stimulus.html","rt":12259},{"block":"linear_testing","helps":0,"clicked":[["answer","clicked"],["A ","false"],["M ","false"],["D ","true"],["N ","false"],["B ","false"],["F ","false"],["H ","false"],["G ","false"],["O ","false"],["C ","false"],["J ","false"],["I ","true"],["E ","false"],["L ","false"],["K ","false"]],"answer":[],"correct":0,"scaffold":"none","question":"starts+finishes","scenario":"longmire","graph":"linear","condition":"4","session":"bravo","experiment":"experiment","subject":"XDJJL","internal_node_id":"0.0-6.0-9.0","time_elapsed":379740,"trial_index":10,"trial_type":"html","url":"../views/src/external/stimulus.html","rt":33308},{"block":"linear_testing","helps":0,"clicked":[["answer","clicked"],["A ","false"],["M ","false"],["D ","false"],["N ","false"],["B ","false"],["F ","false"],["H ","false"],["G ","false"],["O ","false"],["C ","false"],["J ","false"],["I ","false"],["E ","false"],["L ","false"],["K ","false"]],"answer":["4","5"],"correct":1,"scaffold":"none","question":"finishes","scenario":"longmire","graph":"linear","condition":"4","session":"bravo","experiment":"experiment","subject":"XDJJL","internal_node_id":"0.0-6.0-6.0","time_elapsed":423118,"trial_index":11,"trial_type":"html","url":"../views/src/external/stimulus.html","rt":41800},{"block":"linear_testing","helps":0,"clicked":[["answer","clicked"],["A ","false"],["M ","false"],["D ","false"],["N ","false"],["B ","false"],["F ","false"],["H ","false"],["G ","false"],["O ","false"],["C ","false"],["J ","false"],["I ","false"],["E ","false"],["L ","false"],["K ","false"]],"answer":["F"],"correct":0,"scaffold":"none","question":"start+duration","scenario":"longmire","graph":"linear","condition":"4","session":"bravo","experiment":"experiment","subject":"XDJJL","internal_node_id":"0.0-6.0-0.0","time_elapsed":478175,"trial_index":12,"trial_type":"html","url":"../views/src/external/stimulus.html","rt":53756},{"block":"linear_testing","helps":0,"clicked":[["answer","clicked"],["A ","false"],["M ","false"],["D ","false"],["N ","false"],["B ","false"],["F ","false"],["H ","false"],["G ","false"],["O ","false"],["C ","false"],["J ","false"],["I ","false"],["E ","false"],["L ","false"],["K ","false"]],"answer":["C","M"],"correct":0,"scaffold":"none","question":"contain+duration","scenario":"longmire","graph":"linear","condition":"4","session":"bravo","experiment":"experiment","subject":"XDJJL","internal_node_id":"0.0-6.0-4.0","time_elapsed":496574,"trial_index":13,"trial_type":"html","url":"../views/src/external/stimulus.html","rt":17121},{"block":"linear_testing","helps":0,"clicked":[["answer","clicked"],["A ","false"],["M ","false"],["D ","false"],["N ","false"],["B ","false"],["F ","false"],["H ","false"],["G ","false"],["O ","false"],["C ","false"],["J ","false"],["I ","false"],["E ","false"],["L ","false"],["K ","false"]],"answer":["A","B","C","D","F","I"],"correct":1,"scaffold":"none","question":"before+overlap","scenario":"longmire","graph":"linear","condition":"4","session":"bravo","experiment":"experiment","subject":"XDJJL","internal_node_id":"0.0-6.0-1.0","time_elapsed":545904,"trial_index":14,"trial_type":"html","url":"../views/src/external/stimulus.html","rt":48047},{"block":"linear_testing","helps":0,"clicked":[["answer","clicked"],["A ","false"],["M ","false"],["D ","false"],["N ","false"],["B ","false"],["F ","false"],["H ","false"],["G ","false"],["O ","false"],["C ","false"],["J ","false"],["I ","false"],["E ","false"],["L ","false"],["K ","false"]],"answer":["6","8"],"correct":1,"scaffold":"none","question":"starts","scenario":"longmire","graph":"linear","condition":"4","session":"bravo","experiment":"experiment","subject":"XDJJL","internal_node_id":"0.0-6.0-5.0","time_elapsed":571762,"trial_index":15,"trial_type":"html","url":"../views/src/external/stimulus.html","rt":24581},{"block":"linear_testing","helps":0,"clicked":[["answer","clicked"],["A ","false"],["M ","false"],["D ","false"],["N ","false"],["B ","false"],["F ","true"],["H ","false"],["G ","false"],["O ","true"],["C ","false"],["J ","false"],["I ","false"],["E ","false"],["L ","false"],["K ","false"]],"answer":["O"],"correct":1,"scaffold":"none","question":"meets","scenario":"longmire","graph":"linear","condition":"4","session":"bravo","experiment":"experiment","subject":"XDJJL","internal_node_id":"0.0-6.0-8.0","time_elapsed":596704,"trial_index":16,"trial_type":"html","url":"../views/src/external/stimulus.html","rt":23654},{"block":"linear_testing","helps":0,"clicked":[["answer","clicked"],["A ","false"],["M ","false"],["D ","true"],["N ","false"],["B ","false"],["F ","false"],["H ","true"],["G ","false"],["O ","false"],["C ","false"],["J ","false"],["I ","false"],["E ","false"],["L ","false"],["K ","false"]],"answer":["J","K","L"],"correct":0,"scaffold":"none","question":"during+overlap","scenario":"longmire","graph":"linear","condition":"4","session":"bravo","experiment":"experiment","subject":"XDJJL","internal_node_id":"0.0-6.0-3.0","time_elapsed":642212,"trial_index":17,"trial_type":"html","url":"../views/src/external/stimulus.html","rt":43950},{"block":"linear_testing","helps":0,"clicked":[["answer","clicked"],["A ","false"],["M ","false"],["D ","false"],["N ","false"],["B ","false"],["F ","false"],["H ","false"],["G ","false"],["O ","false"],["C ","false"],["J ","false"],["I ","false"],["E ","false"],["L ","false"],["K ","false"]],"answer":["C","J","L"],"correct":0,"scaffold":"none","question":"during","scenario":"longmire","graph":"linear","condition":"4","session":"bravo","experiment":"experiment","subject":"XDJJL","internal_node_id":"0.0-6.0-7.0","time_elapsed":705052,"trial_index":18,"trial_type":"html","url":"../views/src/external/stimulus.html","rt":61555},{"block":"linear_testing","helps":0,"clicked":[["answer","clicked"],["A ","false"],["M ","false"],["D ","true"],["N ","false"],["B ","false"],["F ","false"],["H ","true"],["G ","false"],["O ","false"],["C ","false"],["J ","false"],["I ","false"],["E ","false"],["L ","false"],["K ","false"]],"answer":["A","B","C","D","E","F","G","I","J","M","N"],"correct":0,"scaffold":"none","question":"overlap+overlap","scenario":"longmire","graph":"linear","condition":"4","session":"bravo","experiment":"experiment","subject":"XDJJL","internal_node_id":"0.0-6.0-2.0","time_elapsed":763453,"trial_index":19,"trial_type":"html","url":"../views/src/external/stimulus.html","rt":56950},{"condition":"4","session":"bravo","experiment":"experiment","subject":"XDJJL","internal_node_id":"0.0-7.0","time_elapsed":778136,"trial_index":20,"trial_type":"single-stim","block":"scenario-two","key_press":13,"stimulus":"img/axis.png","rt":13678},{"block":"triangular_scaffolded","helps":0,"clicked":[["answer","clicked"],["M ","false"],["B ","false"],["J ","false"],["N ","false"],["D ","false"],["O ","false"],["K ","false"],["C ","false"],["F ","false"],["I ","false"],["H ","false"],["G ","false"],["L ","false"],["E ","false"],["A ","false"]],"answer":["G"],"correct":0,"scaffold":"show-interactive","question":"start","scenario":"axis","graph":"triangular","condition":"4","session":"bravo","experiment":"experiment","subject":"XDJJL","internal_node_id":"0.0-8.0-0.0","time_elapsed":793742,"trial_index":21,"trial_type":"html","url":"../views/src/external/stimulus.html","rt":14320},{"block":"triangular_scaffolded","helps":0,"clicked":[["answer","clicked"],["M ","false"],["B ","false"],["J ","false"],["N ","false"],["D ","false"],["O ","false"],["K ","false"],["C ","false"],["F ","false"],["I ","false"],["H ","false"],["G ","false"],["L ","false"],["E ","false"],["A ","false"]],"answer":["4"],"correct":1,"scaffold":"show-interactive","question":"end","scenario":"axis","graph":"triangular","condition":"4","session":"bravo","experiment":"experiment","subject":"XDJJL","internal_node_id":"0.0-8.0-1.0","time_elapsed":807222,"trial_index":22,"trial_type":"html","url":"../views/src/external/stimulus.html","rt":12197},{"block":"triangular_scaffolded","helps":0,"clicked":[["answer","clicked"],["M ","false"],["B ","false"],["J ","false"],["N ","false"],["D ","false"],["O ","false"],["K ","false"],["C ","false"],["F ","false"],["I ","false"],["H ","false"],["G ","false"],["L ","false"],["E ","false"],["A ","false"]],"answer":["A","C","E","F","G","H","I","K","L"],"correct":1,"scaffold":"show-interactive","question":"duration","scenario":"axis","graph":"triangular","condition":"4","session":"bravo","experiment":"experiment","subject":"XDJJL","internal_node_id":"0.0-8.0-2.0","time_elapsed":852014,"trial_index":23,"trial_type":"html","url":"../views/src/external/stimulus.html","rt":43508},{"block":"triangular_scaffolded","helps":0,"clicked":[["answer","clicked"],["M ","false"],["B ","false"],["J ","false"],["N ","false"],["D ","false"],["O ","false"],["K ","false"],["C ","false"],["F ","false"],["I ","false"],["H ","false"],["G ","false"],["L ","false"],["E ","false"],["A ","false"]],"answer":["9"],"correct":0,"scaffold":"show-interactive","question":"midpoint","scenario":"axis","graph":"triangular","condition":"4","session":"bravo","experiment":"experiment","subject":"XDJJL","internal_node_id":"0.0-8.0-3.0","time_elapsed":862453,"trial_index":24,"trial_type":"html","url":"../views/src/external/stimulus.html","rt":9162},{"block":"triangular_scaffolded","helps":0,"clicked":[["answer","clicked"],["M ","false"],["B ","false"],["J ","false"],["N ","false"],["D ","false"],["O ","false"],["K ","false"],["C ","false"],["F ","false"],["I ","false"],["H ","false"],["G ","false"],["L ","false"],["E ","false"],["A ","false"]],"answer":["10"],"correct":0,"scaffold":"show-interactive","question":"start+overlap","scenario":"axis","graph":"triangular","condition":"4","session":"bravo","experiment":"experiment","subject":"XDJJL","internal_node_id":"0.0-8.0-4.0","time_elapsed":871079,"trial_index":25,"trial_type":"html","url":"../views/src/external/stimulus.html","rt":7346},{"block":"triangular_testing","helps":0,"answer":["10"],"clicked":[["answer","clicked"],["M ","true"],["B ","true"],["J ","false"],["N ","false"],["D ","false"],["O ","false"],["K ","false"],["C ","false"],["F ","false"],["I ","false"],["H ","false"],["G ","false"],["L ","false"],["E ","false"],["A ","false"]],"correct":0,"scaffold":"none","question":"start+duration","scenario":"axis","graph":"triangular","condition":"4","session":"bravo","experiment":"experiment","subject":"XDJJL","internal_node_id":"0.0-9.0-0.0","time_elapsed":886694,"trial_index":26,"trial_type":"html","url":"../views/src/external/stimulus.html","rt":14322},{"block":"triangular_testing","helps":0,"answer":["D","G"],"clicked":[["answer","clicked"],["M ","false"],["B ","false"],["J ","false"],["N ","false"],["D ","false"],["O ","false"],["K ","false"],["C ","false"],["F ","false"],["I ","false"],["H ","false"],["G ","false"],["L ","false"],["E ","false"],["A ","false"]],"correct":0,"scaffold":"none","question":"meets","scenario":"axis","graph":"triangular","condition":"4","session":"bravo","experiment":"experiment","subject":"XDJJL","internal_node_id":"0.0-9.0-8.0","time_elapsed":896792,"trial_index":27,"trial_type":"html","url":"../views/src/external/stimulus.html","rt":8817},{"block":"triangular_testing","helps":0,"answer":["4"],"clicked":[["answer","clicked"],["M ","false"],["B ","false"],["J ","false"],["N ","false"],["D ","false"],["O ","false"],["K ","false"],["C ","false"],["F ","false"],["I ","false"],["H ","false"],["G ","false"],["L ","false"],["E ","false"],["A ","false"]],"correct":0,"scaffold":"none","question":"starts","scenario":"axis","graph":"triangular","condition":"4","session":"bravo","experiment":"experiment","subject":"XDJJL","internal_node_id":"0.0-9.0-5.0","time_elapsed":899886,"trial_index":28,"trial_type":"html","url":"../views/src/external/stimulus.html","rt":1812},{"block":"triangular_testing","helps":0,"answer":["G","K"],"clicked":[["answer","clicked"],["M ","false"],["B ","false"],["J ","false"],["N ","false"],["D ","false"],["O ","false"],["K ","false"],["C ","false"],["F ","false"],["I ","false"],["H ","false"],["G ","false"],["L ","false"],["E ","false"],["A ","false"]],"correct":0,"scaffold":"none","question":"starts+finishes","scenario":"axis","graph":"triangular","condition":"4","session":"bravo","experiment":"experiment","subject":"XDJJL","internal_node_id":"0.0-9.0-9.0","time_elapsed":907361,"trial_index":29,"trial_type":"html","url":"../views/src/external/stimulus.html","rt":6184},{"block":"triangular_testing","helps":0,"answer":[],"clicked":[["answer","clicked"],["M ","false"],["B ","false"],["J ","false"],["N ","false"],["D ","false"],["O ","false"],["K ","false"],["C ","false"],["F ","false"],["I ","false"],["H ","false"],["G ","false"],["L ","false"],["E ","false"],["A ","false"]],"correct":0,"scaffold":"none","question":"during+overlap","scenario":"axis","graph":"triangular","condition":"4","session":"bravo","experiment":"experiment","subject":"XDJJL","internal_node_id":"0.0-9.0-3.0","time_elapsed":966184,"trial_index":30,"trial_type":"html","url":"../views/src/external/stimulus.html","rt":57533},{"block":"triangular_testing","helps":0,"answer":["G","O"],"clicked":[["answer","clicked"],["M ","false"],["B ","false"],["J ","false"],["N ","false"],["D ","false"],["O ","false"],["K ","false"],["C ","false"],["F ","false"],["I ","false"],["H ","false"],["G ","false"],["L ","false"],["E ","false"],["A ","false"]],"correct":1,"scaffold":"none","question":"finishes","scenario":"axis","graph":"triangular","condition":"4","session":"bravo","experiment":"experiment","subject":"XDJJL","internal_node_id":"0.0-9.0-6.0","time_elapsed":979515,"trial_index":31,"trial_type":"html","url":"../views/src/external/stimulus.html","rt":12051},{"block":"triangular_testing","helps":0,"answer":["F","M","O"],"clicked":[["answer","clicked"],["M ","false"],["B ","false"],["J ","false"],["N ","false"],["D ","false"],["O ","false"],["K ","false"],["C ","false"],["F ","false"],["I ","false"],["H ","false"],["G ","false"],["L ","false"],["E ","false"],["A ","false"]],"correct":1,"scaffold":"none","question":"during","scenario":"axis","graph":"triangular","condition":"4","session":"bravo","experiment":"experiment","subject":"XDJJL","internal_node_id":"0.0-9.0-7.0","time_elapsed":996616,"trial_index":32,"trial_type":"html","url":"../views/src/external/stimulus.html","rt":15810},{"block":"triangular_testing","helps":0,"answer":["H"],"clicked":[["answer","clicked"],["M ","false"],["B ","false"],["J ","false"],["N ","false"],["D ","false"],["O ","false"],["K ","false"],["C ","false"],["F ","false"],["I ","false"],["H ","false"],["G ","false"],["L ","false"],["E ","false"],["A ","false"]],"correct":0,"scaffold":"none","question":"contain+duration","scenario":"axis","graph":"triangular","condition":"4","session":"bravo","experiment":"experiment","subject":"XDJJL","internal_node_id":"0.0-9.0-4.0","time_elapsed":1010953,"trial_index":33,"trial_type":"html","url":"../views/src/external/stimulus.html","rt":13050},{"block":"triangular_testing","helps":0,"answer":["A","C","E","F","G","J","K"],"clicked":[["answer","clicked"],["M ","false"],["B ","false"],["J ","false"],["N ","false"],["D ","false"],["O ","false"],["K ","false"],["C ","false"],["F ","false"],["I ","false"],["H ","false"],["G ","false"],["L ","false"],["E ","false"],["A ","false"]],"correct":0,"scaffold":"none","question":"overlap+overlap","scenario":"axis","graph":"triangular","condition":"4","session":"bravo","experiment":"experiment","subject":"XDJJL","internal_node_id":"0.0-9.0-2.0","time_elapsed":1050468,"trial_index":34,"trial_type":"html","url":"../views/src/external/stimulus.html","rt":38239},{"block":"triangular_testing","helps":0,"answer":["E","I"],"clicked":[["answer","clicked"],["M ","false"],["B ","false"],["J ","false"],["N ","false"],["D ","false"],["O ","false"],["K ","false"],["C ","false"],["F ","false"],["I ","false"],["H ","false"],["G ","false"],["L ","false"],["E ","false"],["A ","false"]],"correct":0,"scaffold":"none","question":"before+overlap","scenario":"axis","graph":"triangular","condition":"4","session":"bravo","experiment":"experiment","subject":"XDJJL","internal_node_id":"0.0-9.0-1.0","time_elapsed":1058314,"trial_index":35,"trial_type":"html","url":"../views/src/external/stimulus.html","rt":6565},{"condition":"4","session":"bravo","experiment":"experiment","subject":"XDJJL","internal_node_id":"0.0-10.0","time_elapsed":1078241,"trial_index":36,"trial_type":"single-stim","block":"scenario-draw","key_press":13,"stimulus":"img/jones.png","rt":18920},{"condition":"4","session":"bravo","experiment":"experiment","subject":"XDJJL","internal_node_id":"0.0-11.0","time_elapsed":1510221,"trial_index":37,"trial_type":"html","block":"instructions_drawing","url":"../views/src/external/instructions_draw.html","rt":430818},{"block":"drawingTest","clicked":[["answer","clicked"]],"answer":["E2"],"correct":0,"scaffold":"none","question":"duration","scenario":"jones","graph":"none","condition":"4","session":"bravo","experiment":"experiment","subject":"XDJJL","internal_node_id":"0.0-12.0","time_elapsed":1552944,"trial_index":38,"trial_type":"html","url":"../views/src/external/stimulus.html","rt":41320},{"block":"drawingTest","clicked":[["answer","clicked"]],"answer":["1-3pm"],"correct":0,"scaffold":"none","question":"overlap","scenario":"jones","graph":"none","condition":"4","session":"bravo","experiment":"experiment","subject":"XDJJL","internal_node_id":"0.0-13.0","time_elapsed":1579663,"trial_index":39,"trial_type":"html","url":"../views/src/external/stimulus.html","rt":25404},{"condition":"4","session":"bravo","experiment":"experiment","subject":"XDJJL","internal_node_id":"0.0-14.0","time_elapsed":1611866,"trial_index":40,"trial_type":"survey-text","block":"demo-1","responses":"{\"Q0\":\"22\",\"Q1\":\"usa\"}","rt":31196},{"condition":"4","session":"bravo","experiment":"experiment","subject":"XDJJL","internal_node_id":"0.0-15.0","time_elapsed":1632306,"trial_index":41,"trial_type":"survey-multi-choice","block":"demo-2","responses":"{\"Q0\":\"Spanish\",\"Q1\":\"Fourth\",\"Q2\":\"Humanities\",\"Q3\":\"Male\",\"Q4\":\"the second one (triangular)\"}","rt":19417},{"condition":"4","session":"bravo","experiment":"experiment","subject":"XDJJL","internal_node_id":"0.0-16.0","time_elapsed":1638724,"trial_index":42,"trial_type":"html","block":"debrief","url":"../views/src/external/debrief.html","rt":5163}],"__v":0}
