{"_id":{"$oid":"58b9d31cbccd690004ff2a46"},"data":[{"condition":0,"session":"charlie","experiment":"experiment","subject":"UWWFF","internal_node_id":"0.0-0.0","time_elapsed":207563,"trial_index":0,"trial_type":"single-stim","block":"phone","key_press":13,"stimulus":"img/phone.png","rt":207555},{"condition":0,"session":"charlie","experiment":"experiment","subject":"UWWFF","internal_node_id":"0.0-1.0","time_elapsed":216937,"trial_index":1,"trial_type":"html","block":"consent","url":"../views/src/external/consent.html","rt":8050},{"condition":0,"session":"charlie","experiment":"experiment","subject":"UWWFF","internal_node_id":"0.0-2.0","time_elapsed":233198,"trial_index":2,"trial_type":"survey-text","block":"codes","responses":"{\"Q0\":\"CHARLIE\",\"Q1\":\"0\"}","rt":15252},{"condition":0,"session":"charlie","experiment":"experiment","subject":"UWWFF","internal_node_id":"0.0-3.0","time_elapsed":242033,"trial_index":3,"trial_type":"html","block":"instructions_lab","url":"../views/src/external/instructions_lab.html","rt":7680},{"condition":0,"session":"charlie","experiment":"experiment","subject":"UWWFF","internal_node_id":"0.0-4.0","time_elapsed":251628,"trial_index":4,"trial_type":"single-stim","block":"scenario-one","key_press":13,"stimulus":"img/longmire.png","rt":8591},{"block":"LS1","helps":0,"clicked":[["answer","clicked"],["A ","false"],["M ","false"],["D ","false"],["N ","false"],["B ","false"],["F ","false"],["H ","false"],["G ","false"],["O ","false"],["C ","false"],["J ","false"],["I ","false"],["E ","false"],["L ","false"],["K ","false"]],"answer":["D"],"correct":0,"scaffold":"none","question":"start","scenario":"longmire","graph":"linear","condition":0,"session":"charlie","experiment":"experiment","subject":"UWWFF","internal_node_id":"0.0-5.0-0.0","time_elapsed":278070,"trial_index":5,"trial_type":"html","url":"../views/src/external/stimulus.html","rt":25020},{"block":"LS2","helps":0,"clicked":[["answer","clicked"],["A ","false"],["M ","false"],["D ","false"],["N ","false"],["B ","false"],["F ","false"],["H ","false"],["G ","false"],["O ","false"],["C ","false"],["J ","false"],["I ","false"],["E ","false"],["L ","false"],["K ","false"]],"answer":["G","J","O"],"correct":0,"scaffold":"none","question":"end","scenario":"longmire","graph":"linear","condition":0,"session":"charlie","experiment":"experiment","subject":"UWWFF","internal_node_id":"0.0-5.0-1.0","time_elapsed":325673,"trial_index":6,"trial_type":"html","url":"../views/src/external/stimulus.html","rt":46342},{"block":"LS3","helps":0,"clicked":[["answer","clicked"],["A ","false"],["M ","false"],["D ","false"],["N ","false"],["B ","false"],["F ","false"],["H ","false"],["G ","false"],["O ","false"],["C ","false"],["J ","false"],["I ","false"],["E ","false"],["L ","false"],["K ","false"]],"answer":["G","O"],"correct":1,"scaffold":"none","question":"duration","scenario":"longmire","graph":"linear","condition":0,"session":"charlie","experiment":"experiment","subject":"UWWFF","internal_node_id":"0.0-5.0-2.0","time_elapsed":344386,"trial_index":7,"trial_type":"html","url":"../views/src/external/stimulus.html","rt":17459},{"block":"LS4","helps":0,"clicked":[["answer","clicked"],["A ","false"],["M ","false"],["D ","false"],["N ","false"],["B ","false"],["F ","false"],["H ","false"],["G ","false"],["O ","false"],["C ","false"],["J ","false"],["I ","false"],["E ","false"],["L ","false"],["K ","false"]],"answer":["1"],"correct":1,"scaffold":"none","question":"midpoint","scenario":"longmire","graph":"linear","condition":0,"session":"charlie","experiment":"experiment","subject":"UWWFF","internal_node_id":"0.0-5.0-3.0","time_elapsed":360999,"trial_index":8,"trial_type":"html","url":"../views/src/external/stimulus.html","rt":15338},{"block":"LS5","helps":0,"clicked":[["answer","clicked"],["A ","false"],["M ","false"],["D ","false"],["N ","false"],["B ","false"],["F ","false"],["H ","false"],["G ","false"],["O ","false"],["C ","false"],["J ","false"],["I ","false"],["E ","false"],["L ","false"],["K ","false"]],"answer":["A"],"correct":1,"scaffold":"none","question":"start+overlap","scenario":"longmire","graph":"linear","condition":0,"session":"charlie","experiment":"experiment","subject":"UWWFF","internal_node_id":"0.0-5.0-4.0","time_elapsed":377279,"trial_index":9,"trial_type":"html","url":"../views/src/external/stimulus.html","rt":14962},{"block":"LT1","helps":0,"clicked":[["answer","clicked"],["A ","false"],["M ","false"],["D ","false"],["N ","false"],["B ","false"],["F ","false"],["H ","false"],["G ","false"],["O ","false"],["C ","false"],["J ","false"],["I ","false"],["E ","false"],["L ","false"],["K ","false"]],"answer":["B","C","F","G"],"correct":0,"scaffold":"none","question":"during","scenario":"longmire","graph":"linear","condition":0,"session":"charlie","experiment":"experiment","subject":"UWWFF","internal_node_id":"0.0-6.0-7.0","time_elapsed":412011,"trial_index":10,"trial_type":"html","url":"../views/src/external/stimulus.html","rt":33478},{"block":"LT2","helps":0,"clicked":[["answer","clicked"],["A ","false"],["M ","false"],["D ","false"],["N ","false"],["B ","false"],["F ","false"],["H ","false"],["G ","false"],["O ","false"],["C ","false"],["J ","false"],["I ","false"],["E ","false"],["L ","false"],["K ","false"]],"answer":["G","O"],"correct":1,"scaffold":"none","question":"contain+duration","scenario":"longmire","graph":"linear","condition":0,"session":"charlie","experiment":"experiment","subject":"UWWFF","internal_node_id":"0.0-6.0-4.0","time_elapsed":432228,"trial_index":11,"trial_type":"html","url":"../views/src/external/stimulus.html","rt":18963},{"block":"LT3","helps":0,"clicked":[["answer","clicked"],["A ","false"],["M ","false"],["D ","false"],["N ","false"],["B ","false"],["F ","false"],["H ","false"],["G ","false"],["O ","false"],["C ","false"],["J ","false"],["I ","false"],["E ","false"],["L ","false"],["K ","false"]],"answer":["4","5"],"correct":1,"scaffold":"none","question":"finishes","scenario":"longmire","graph":"linear","condition":0,"session":"charlie","experiment":"experiment","subject":"UWWFF","internal_node_id":"0.0-6.0-6.0","time_elapsed":458636,"trial_index":12,"trial_type":"html","url":"../views/src/external/stimulus.html","rt":25156},{"block":"LT4","helps":0,"clicked":[["answer","clicked"],["A ","false"],["M ","false"],["D ","false"],["N ","false"],["B ","false"],["F ","false"],["H ","false"],["G ","false"],["O ","false"],["C ","false"],["J ","false"],["I ","false"],["E ","false"],["L ","false"],["K ","false"]],"answer":["A","M"],"correct":0,"scaffold":"none","question":"overlap+overlap","scenario":"longmire","graph":"linear","condition":0,"session":"charlie","experiment":"experiment","subject":"UWWFF","internal_node_id":"0.0-6.0-2.0","time_elapsed":479596,"trial_index":13,"trial_type":"html","url":"../views/src/external/stimulus.html","rt":19708},{"block":"LT5","helps":0,"clicked":[["answer","clicked"],["A ","false"],["M ","false"],["D ","false"],["N ","false"],["B ","false"],["F ","false"],["H ","false"],["G ","false"],["O ","false"],["C ","false"],["J ","false"],["I ","false"],["E ","false"],["L ","false"],["K ","false"]],"answer":["C"],"correct":1,"scaffold":"none","question":"starts+finishes","scenario":"longmire","graph":"linear","condition":0,"session":"charlie","experiment":"experiment","subject":"UWWFF","internal_node_id":"0.0-6.0-9.0","time_elapsed":493908,"trial_index":14,"trial_type":"html","url":"../views/src/external/stimulus.html","rt":13045},{"block":"LT6","helps":0,"clicked":[["answer","clicked"],["A ","false"],["M ","false"],["D ","false"],["N ","false"],["B ","false"],["F ","false"],["H ","false"],["G ","false"],["O ","false"],["C ","false"],["J ","false"],["I ","false"],["E ","false"],["L ","false"],["K ","false"]],"answer":["L"],"correct":0,"scaffold":"none","question":"during+overlap","scenario":"longmire","graph":"linear","condition":0,"session":"charlie","experiment":"experiment","subject":"UWWFF","internal_node_id":"0.0-6.0-3.0","time_elapsed":535504,"trial_index":15,"trial_type":"html","url":"../views/src/external/stimulus.html","rt":40339},{"block":"LT7","helps":0,"clicked":[["answer","clicked"],["A ","false"],["M ","false"],["D ","false"],["N ","false"],["B ","false"],["F ","false"],["H ","false"],["G ","false"],["O ","false"],["C ","false"],["J ","false"],["I ","false"],["E ","false"],["L ","false"],["K ","false"]],"answer":["A","B","D","F"],"correct":0,"scaffold":"none","question":"before+overlap","scenario":"longmire","graph":"linear","condition":0,"session":"charlie","experiment":"experiment","subject":"UWWFF","internal_node_id":"0.0-6.0-1.0","time_elapsed":561467,"trial_index":16,"trial_type":"html","url":"../views/src/external/stimulus.html","rt":24695},{"block":"LT8","helps":0,"clicked":[["answer","clicked"],["A ","false"],["M ","false"],["D ","false"],["N ","false"],["B ","false"],["F ","false"],["H ","false"],["G ","false"],["O ","false"],["C ","false"],["J ","false"],["I ","false"],["E ","false"],["L ","false"],["K ","false"]],"answer":["O"],"correct":1,"scaffold":"none","question":"meets","scenario":"longmire","graph":"linear","condition":0,"session":"charlie","experiment":"experiment","subject":"UWWFF","internal_node_id":"0.0-6.0-8.0","time_elapsed":609275,"trial_index":17,"trial_type":"html","url":"../views/src/external/stimulus.html","rt":46556},{"block":"LT9","helps":0,"clicked":[["answer","clicked"],["A ","false"],["M ","false"],["D ","false"],["N ","false"],["B ","false"],["F ","false"],["H ","false"],["G ","false"],["O ","false"],["C ","false"],["J ","false"],["I ","false"],["E ","false"],["L ","false"],["K ","false"]],"answer":["A","B","D","F","H","M","N"],"correct":0,"scaffold":"none","question":"start+duration","scenario":"longmire","graph":"linear","condition":0,"session":"charlie","experiment":"experiment","subject":"UWWFF","internal_node_id":"0.0-6.0-0.0","time_elapsed":640288,"trial_index":18,"trial_type":"html","url":"../views/src/external/stimulus.html","rt":29639},{"block":"LT10","helps":0,"clicked":[["answer","clicked"],["A ","false"],["M ","false"],["D ","false"],["N ","false"],["B ","false"],["F ","false"],["H ","false"],["G ","false"],["O ","false"],["C ","false"],["J ","false"],["I ","false"],["E ","false"],["L ","false"],["K ","false"]],"answer":["8"],"correct":0,"scaffold":"none","question":"starts","scenario":"longmire","graph":"linear","condition":0,"session":"charlie","experiment":"experiment","subject":"UWWFF","internal_node_id":"0.0-6.0-5.0","time_elapsed":665447,"trial_index":19,"trial_type":"html","url":"../views/src/external/stimulus.html","rt":23909},{"condition":0,"session":"charlie","experiment":"experiment","subject":"UWWFF","internal_node_id":"0.0-7.0","time_elapsed":687777,"trial_index":20,"trial_type":"single-stim","block":"scenario-two","key_press":13,"stimulus":"img/axis.png","rt":21326},{"block":"TS1","helps":0,"clicked":[["answer","clicked"],["M ","false"],["B ","false"],["J ","false"],["N ","false"],["D ","false"],["O ","false"],["K ","false"],["C ","false"],["F ","false"],["I ","false"],["H ","false"],["G ","false"],["L ","false"],["E ","false"],["A ","false"]],"answer":["H","O"],"correct":1,"scaffold":"none","question":"start","scenario":"axis","graph":"triangular","condition":0,"session":"charlie","experiment":"experiment","subject":"UWWFF","internal_node_id":"0.0-8.0-0.0","time_elapsed":761203,"trial_index":21,"trial_type":"html","url":"../views/src/external/stimulus.html","rt":72174},{"block":"TS2","helps":0,"clicked":[["answer","clicked"],["M ","false"],["B ","false"],["J ","false"],["N ","false"],["D ","false"],["O ","false"],["K ","false"],["C ","false"],["F ","false"],["I ","false"],["H ","false"],["G ","false"],["L ","false"],["E ","false"],["A ","false"]],"answer":["4"],"correct":1,"scaffold":"none","question":"end","scenario":"axis","graph":"triangular","condition":0,"session":"charlie","experiment":"experiment","subject":"UWWFF","internal_node_id":"0.0-8.0-1.0","time_elapsed":768715,"trial_index":22,"trial_type":"html","url":"../views/src/external/stimulus.html","rt":6152},{"block":"TS3","helps":0,"clicked":[["answer","clicked"],["M ","false"],["B ","false"],["J ","false"],["N ","false"],["D ","false"],["O ","false"],["K ","false"],["C ","false"],["F ","false"],["I ","false"],["H ","false"],["G ","false"],["L ","false"],["E ","false"],["A ","false"]],"answer":["A","C","E","F","G","H","I","K","L"],"correct":1,"scaffold":"none","question":"duration","scenario":"axis","graph":"triangular","condition":0,"session":"charlie","experiment":"experiment","subject":"UWWFF","internal_node_id":"0.0-8.0-2.0","time_elapsed":794667,"trial_index":23,"trial_type":"html","url":"../views/src/external/stimulus.html","rt":24682},{"block":"TS4","helps":0,"clicked":[["answer","clicked"],["M ","false"],["B ","false"],["J ","false"],["N ","false"],["D ","false"],["O ","false"],["K ","false"],["C ","false"],["F ","false"],["I ","false"],["H ","false"],["G ","false"],["L ","false"],["E ","false"],["A ","false"]],"answer":["8"],"correct":1,"scaffold":"none","question":"midpoint","scenario":"axis","graph":"triangular","condition":0,"session":"charlie","experiment":"experiment","subject":"UWWFF","internal_node_id":"0.0-8.0-3.0","time_elapsed":817195,"trial_index":24,"trial_type":"html","url":"../views/src/external/stimulus.html","rt":21278},{"block":"TS5","helps":0,"clicked":[["answer","clicked"],["M ","false"],["B ","false"],["J ","false"],["N ","false"],["D ","false"],["O ","false"],["K ","false"],["C ","false"],["F ","false"],["I ","false"],["H ","false"],["G ","false"],["L ","false"],["E ","false"],["A ","false"]],"answer":["8"],"correct":0,"scaffold":"none","question":"start+overlap","scenario":"axis","graph":"triangular","condition":0,"session":"charlie","experiment":"experiment","subject":"UWWFF","internal_node_id":"0.0-8.0-4.0","time_elapsed":835408,"trial_index":25,"trial_type":"html","url":"../views/src/external/stimulus.html","rt":16965},{"block":"TS1","helps":0,"answer":["B","C","E","J"],"clicked":[["answer","clicked"],["M ","false"],["B ","false"],["J ","false"],["N ","false"],["D ","false"],["O ","false"],["K ","false"],["C ","false"],["F ","false"],["I ","false"],["H ","false"],["G ","false"],["L ","false"],["E ","false"],["A ","false"]],"correct":0,"scaffold":"none","question":"overlap+overlap","scenario":"axis","graph":"triangular","condition":0,"session":"charlie","experiment":"experiment","subject":"UWWFF","internal_node_id":"0.0-9.0-2.0","time_elapsed":858089,"trial_index":26,"trial_type":"html","url":"../views/src/external/stimulus.html","rt":21426},{"block":"TS2","helps":0,"answer":["F","M","O"],"clicked":[["answer","clicked"],["M ","false"],["B ","false"],["J ","false"],["N ","false"],["D ","false"],["O ","false"],["K ","false"],["C ","false"],["F ","false"],["I ","false"],["H ","false"],["G ","false"],["L ","false"],["E ","false"],["A ","false"]],"correct":1,"scaffold":"none","question":"during","scenario":"axis","graph":"triangular","condition":0,"session":"charlie","experiment":"experiment","subject":"UWWFF","internal_node_id":"0.0-9.0-7.0","time_elapsed":871360,"trial_index":27,"trial_type":"html","url":"../views/src/external/stimulus.html","rt":12023},{"block":"TS3","helps":0,"answer":["9"],"clicked":[["answer","clicked"],["M ","false"],["B ","false"],["J ","false"],["N ","false"],["D ","false"],["O ","false"],["K ","false"],["C ","false"],["F ","false"],["I ","false"],["H ","false"],["G ","false"],["L ","false"],["E ","false"],["A ","false"]],"correct":1,"scaffold":"none","question":"start+duration","scenario":"axis","graph":"triangular","condition":0,"session":"charlie","experiment":"experiment","subject":"UWWFF","internal_node_id":"0.0-9.0-0.0","time_elapsed":890587,"trial_index":28,"trial_type":"html","url":"../views/src/external/stimulus.html","rt":17903},{"block":"TS4","helps":0,"answer":["D","M","N","O"],"clicked":[["answer","clicked"],["M ","false"],["B ","false"],["J ","false"],["N ","false"],["D ","false"],["O ","false"],["K ","false"],["C ","false"],["F ","false"],["I ","false"],["H ","false"],["G ","false"],["L ","false"],["E ","false"],["A ","false"]],"correct":1,"scaffold":"none","question":"contain+duration","scenario":"axis","graph":"triangular","condition":0,"session":"charlie","experiment":"experiment","subject":"UWWFF","internal_node_id":"0.0-9.0-4.0","time_elapsed":923634,"trial_index":29,"trial_type":"html","url":"../views/src/external/stimulus.html","rt":31784},{"block":"TS5","helps":0,"answer":["G","O"],"clicked":[["answer","clicked"],["M ","false"],["B ","false"],["J ","false"],["N ","false"],["D ","false"],["O ","false"],["K ","false"],["C ","false"],["F ","false"],["I ","false"],["H ","false"],["G ","false"],["L ","false"],["E ","false"],["A ","false"]],"correct":1,"scaffold":"none","question":"finishes","scenario":"axis","graph":"triangular","condition":0,"session":"charlie","experiment":"experiment","subject":"UWWFF","internal_node_id":"0.0-9.0-6.0","time_elapsed":932785,"trial_index":30,"trial_type":"html","url":"../views/src/external/stimulus.html","rt":7897},{"block":"TS6","helps":0,"answer":["G"],"clicked":[["answer","clicked"],["M ","false"],["B ","false"],["J ","false"],["N ","false"],["D ","false"],["O ","false"],["K ","false"],["C ","false"],["F ","false"],["I ","false"],["H ","false"],["G ","false"],["L ","false"],["E ","false"],["A ","false"]],"correct":1,"scaffold":"none","question":"starts+finishes","scenario":"axis","graph":"triangular","condition":0,"session":"charlie","experiment":"experiment","subject":"UWWFF","internal_node_id":"0.0-9.0-9.0","time_elapsed":941967,"trial_index":31,"trial_type":"html","url":"../views/src/external/stimulus.html","rt":7923},{"block":"TS7","helps":0,"answer":["5"],"clicked":[["answer","clicked"],["M ","false"],["B ","false"],["J ","false"],["N ","false"],["D ","false"],["O ","false"],["K ","false"],["C ","false"],["F ","false"],["I ","false"],["H ","false"],["G ","false"],["L ","false"],["E ","false"],["A ","false"]],"correct":0,"scaffold":"none","question":"starts","scenario":"axis","graph":"triangular","condition":0,"session":"charlie","experiment":"experiment","subject":"UWWFF","internal_node_id":"0.0-9.0-5.0","time_elapsed":958302,"trial_index":32,"trial_type":"html","url":"../views/src/external/stimulus.html","rt":15084},{"block":"TS8","helps":0,"answer":["F","G","M","O"],"clicked":[["answer","clicked"],["M ","false"],["B ","false"],["J ","false"],["N ","false"],["D ","false"],["O ","false"],["K ","false"],["C ","false"],["F ","false"],["I ","false"],["H ","false"],["G ","false"],["L ","false"],["E ","false"],["A ","false"]],"correct":1,"scaffold":"none","question":"before+overlap","scenario":"axis","graph":"triangular","condition":0,"session":"charlie","experiment":"experiment","subject":"UWWFF","internal_node_id":"0.0-9.0-1.0","time_elapsed":983468,"trial_index":33,"trial_type":"html","url":"../views/src/external/stimulus.html","rt":23855},{"block":"TS9","helps":0,"answer":["H","N","O"],"clicked":[["answer","clicked"],["M ","false"],["B ","false"],["J ","false"],["N ","false"],["D ","false"],["O ","false"],["K ","false"],["C ","false"],["F ","false"],["I ","false"],["H ","false"],["G ","false"],["L ","false"],["E ","false"],["A ","false"]],"correct":0,"scaffold":"none","question":"meets","scenario":"axis","graph":"triangular","condition":0,"session":"charlie","experiment":"experiment","subject":"UWWFF","internal_node_id":"0.0-9.0-8.0","time_elapsed":1009949,"trial_index":34,"trial_type":"html","url":"../views/src/external/stimulus.html","rt":25228},{"block":"TS10","helps":0,"answer":["G"],"clicked":[["answer","clicked"],["M ","false"],["B ","false"],["J ","false"],["N ","false"],["D ","false"],["O ","false"],["K ","false"],["C ","false"],["F ","false"],["I ","false"],["H ","false"],["G ","false"],["L ","false"],["E ","false"],["A ","false"]],"correct":0,"scaffold":"none","question":"during+overlap","scenario":"axis","graph":"triangular","condition":0,"session":"charlie","experiment":"experiment","subject":"UWWFF","internal_node_id":"0.0-9.0-3.0","time_elapsed":1024393,"trial_index":35,"trial_type":"html","url":"../views/src/external/stimulus.html","rt":13195},{"condition":0,"session":"charlie","experiment":"experiment","subject":"UWWFF","internal_node_id":"0.0-10.0","time_elapsed":1045006,"trial_index":36,"trial_type":"single-stim","block":"scenario-draw","key_press":13,"stimulus":"img/jones.png","rt":19607},{"condition":0,"session":"charlie","experiment":"experiment","subject":"UWWFF","internal_node_id":"0.0-11.0","time_elapsed":1620272,"trial_index":37,"trial_type":"html","block":"instructions_drawing","url":"../views/src/external/instructions_draw.html","rt":574094},{"block":"DT1","clicked":[["answer","clicked"]],"answer":["C1"],"correct":1,"scaffold":"none","question":"duration","scenario":"jones","graph":"none","condition":0,"session":"charlie","experiment":"experiment","subject":"UWWFF","internal_node_id":"0.0-12.0","time_elapsed":1682710,"trial_index":38,"trial_type":"html","url":"../views/src/external/stimulus.html","rt":61028},{"block":"DT2","clicked":[["answer","clicked"]],"answer":["Chris","3-4pm"],"correct":1,"scaffold":"none","question":"overlap","scenario":"jones","graph":"none","condition":0,"session":"charlie","experiment":"experiment","subject":"UWWFF","internal_node_id":"0.0-13.0","time_elapsed":1725094,"trial_index":39,"trial_type":"html","url":"../views/src/external/stimulus.html","rt":40971},{"condition":0,"session":"charlie","experiment":"experiment","subject":"UWWFF","internal_node_id":"0.0-14.0","time_elapsed":1732947,"trial_index":40,"trial_type":"survey-text","block":"demo-1","responses":"{\"Q0\":\"23\",\"Q1\":\"China\"}","rt":6847},{"condition":0,"session":"charlie","experiment":"experiment","subject":"UWWFF","internal_node_id":"0.0-15.0","time_elapsed":1750717,"trial_index":41,"trial_type":"survey-multi-choice","block":"demo-2","responses":"{\"Q0\":\"Mandarin or Cantonese\",\"Q1\":\"Fourth\",\"Q2\":\"Natural Sciences\",\"Q3\":\"Female\",\"Q4\":\"the second one (triangular)\"}","rt":16756},{"condition":0,"session":"charlie","experiment":"experiment","subject":"UWWFF","internal_node_id":"0.0-16.0","time_elapsed":1756500,"trial_index":42,"trial_type":"html","block":"debrief","url":"../views/src/external/debrief.html","rt":4485}],"__v":0}
{"_id":{"$oid":"58b9d3b3bccd690004ff2a47"},"data":[{"condition":"2","session":"CHARLIE","experiment":"reverse","subject":"QEHR1","internal_node_id":"0.0-0.0","time_elapsed":340860,"trial_index":0,"trial_type":"single-stim","block":"phone","key_press":13,"stimulus":"img/phone.png","rt":340856},{"condition":"2","session":"CHARLIE","experiment":"reverse","subject":"QEHR1","internal_node_id":"0.0-1.0","time_elapsed":348000,"trial_index":1,"trial_type":"html","block":"consent","url":"../views/src/external/consent.html","rt":5866},{"condition":"2","session":"CHARLIE","experiment":"reverse","subject":"QEHR1","internal_node_id":"0.0-2.0","time_elapsed":362983,"trial_index":2,"trial_type":"survey-text","block":"codes","responses":"{\"Q0\":\"CHARLIE\",\"Q1\":\"2\"}","rt":13974},{"condition":"2","session":"CHARLIE","experiment":"reverse","subject":"QEHR1","internal_node_id":"0.0-3.0","time_elapsed":377089,"trial_index":3,"trial_type":"html","block":"instructions_lab","url":"../views/src/external/instructions_lab.html","rt":12931},{"condition":"2","session":"CHARLIE","experiment":"reverse","subject":"QEHR1","internal_node_id":"0.0-4.0","time_elapsed":394998,"trial_index":4,"trial_type":"single-stim","block":"scenario-two","key_press":13,"stimulus":"img/axis.png","rt":16906},{"block":"TS1","helps":0,"clicked":[["answer","clicked"],["M ","false"],["B ","false"],["J ","false"],["N ","false"],["D ","false"],["O ","false"],["K ","false"],["C ","false"],["F ","false"],["I ","false"],["H ","false"],["G ","false"],["L ","false"],["E ","false"],["A ","false"]],"answer":["G"],"correct":0,"scaffold":"describe-how","question":"start","scenario":"axis","graph":"triangular","condition":"2","session":"CHARLIE","experiment":"reverse","subject":"QEHR1","internal_node_id":"0.0-5.0-0.0","time_elapsed":469381,"trial_index":5,"trial_type":"html","url":"../views/src/external/stimulus.html","rt":72923},{"block":"TS2","helps":0,"clicked":[["answer","clicked"],["M ","false"],["B ","false"],["J ","false"],["N ","false"],["D ","false"],["O ","false"],["K ","false"],["C ","false"],["F ","false"],["I ","false"],["H ","false"],["G ","false"],["L ","false"],["E ","false"],["A ","false"]],"answer":["4"],"correct":1,"scaffold":"describe-how","question":"end","scenario":"axis","graph":"triangular","condition":"2","session":"CHARLIE","experiment":"reverse","subject":"QEHR1","internal_node_id":"0.0-5.0-1.0","time_elapsed":532190,"trial_index":6,"trial_type":"html","url":"../views/src/external/stimulus.html","rt":61397},{"block":"TS3","helps":0,"clicked":[["answer","clicked"],["M ","false"],["B ","false"],["J ","false"],["N ","false"],["D ","false"],["O ","false"],["K ","false"],["C ","false"],["F ","false"],["I ","false"],["H ","false"],["G ","false"],["L ","false"],["E ","false"],["A ","false"]],"answer":["E","I"],"correct":0,"scaffold":"describe-how","question":"duration","scenario":"axis","graph":"triangular","condition":"2","session":"CHARLIE","experiment":"reverse","subject":"QEHR1","internal_node_id":"0.0-5.0-2.0","time_elapsed":568459,"trial_index":7,"trial_type":"html","url":"../views/src/external/stimulus.html","rt":34852},{"block":"TS4","helps":0,"clicked":[["answer","clicked"],["M ","false"],["B ","false"],["J ","false"],["N ","false"],["D ","false"],["O ","false"],["K ","false"],["C ","false"],["F ","false"],["I ","false"],["H ","false"],["G ","false"],["L ","false"],["E ","false"],["A ","false"]],"answer":["9"],"correct":0,"scaffold":"describe-how","question":"midpoint","scenario":"axis","graph":"triangular","condition":"2","session":"CHARLIE","experiment":"reverse","subject":"QEHR1","internal_node_id":"0.0-5.0-3.0","time_elapsed":592964,"trial_index":8,"trial_type":"html","url":"../views/src/external/stimulus.html","rt":23247},{"block":"TS5","helps":0,"clicked":[["answer","clicked"],["M ","false"],["B ","false"],["J ","false"],["N ","false"],["D ","false"],["O ","false"],["K ","false"],["C ","false"],["F ","false"],["I ","false"],["H ","false"],["G ","false"],["L ","false"],["E ","false"],["A ","false"]],"answer":["10"],"correct":0,"scaffold":"describe-how","question":"start+overlap","scenario":"axis","graph":"triangular","condition":"2","session":"CHARLIE","experiment":"reverse","subject":"QEHR1","internal_node_id":"0.0-5.0-4.0","time_elapsed":635620,"trial_index":9,"trial_type":"html","url":"../views/src/external/stimulus.html","rt":41398},{"block":"TT1","helps":0,"answer":["J"],"clicked":[["answer","clicked"],["M ","false"],["B ","false"],["J ","false"],["N ","false"],["D ","false"],["O ","false"],["K ","false"],["C ","false"],["F ","false"],["I ","false"],["H ","false"],["G ","false"],["L ","false"],["E ","false"],["A ","false"]],"correct":0,"scaffold":"none","question":"during+overlap","scenario":"axis","graph":"triangular","condition":"2","session":"CHARLIE","experiment":"reverse","subject":"QEHR1","internal_node_id":"0.0-6.0-3.0","time_elapsed":690861,"trial_index":10,"trial_type":"html","url":"../views/src/external/stimulus.html","rt":53797},{"block":"TT2","helps":0,"answer":["10"],"clicked":[["answer","clicked"],["M ","false"],["B ","false"],["J ","false"],["N ","false"],["D ","false"],["O ","false"],["K ","false"],["C ","false"],["F ","false"],["I ","false"],["H ","false"],["G ","false"],["L ","false"],["E ","false"],["A ","false"]],"correct":0,"scaffold":"none","question":"start+duration","scenario":"axis","graph":"triangular","condition":"2","session":"CHARLIE","experiment":"reverse","subject":"QEHR1","internal_node_id":"0.0-6.0-0.0","time_elapsed":732670,"trial_index":11,"trial_type":"html","url":"../views/src/external/stimulus.html","rt":40557},{"block":"TT3","helps":0,"answer":["J"],"clicked":[["answer","clicked"],["M ","false"],["B ","false"],["J ","false"],["N ","false"],["D ","false"],["O ","false"],["K ","false"],["C ","false"],["F ","false"],["I ","false"],["H ","false"],["G ","false"],["L ","false"],["E ","false"],["A ","false"]],"correct":0,"scaffold":"none","question":"before+overlap","scenario":"axis","graph":"triangular","condition":"2","session":"CHARLIE","experiment":"reverse","subject":"QEHR1","internal_node_id":"0.0-6.0-1.0","time_elapsed":749212,"trial_index":12,"trial_type":"html","url":"../views/src/external/stimulus.html","rt":15293},{"block":"TT4","helps":0,"answer":["E"],"clicked":[["answer","clicked"],["M ","false"],["B ","false"],["J ","false"],["N ","false"],["D ","false"],["O ","false"],["K ","false"],["C ","false"],["F ","false"],["I ","false"],["H ","false"],["G ","false"],["L ","false"],["E ","false"],["A ","false"]],"correct":0,"scaffold":"none","question":"starts+finishes","scenario":"axis","graph":"triangular","condition":"2","session":"CHARLIE","experiment":"reverse","subject":"QEHR1","internal_node_id":"0.0-6.0-9.0","time_elapsed":784250,"trial_index":13,"trial_type":"html","url":"../views/src/external/stimulus.html","rt":33792},{"block":"TT5","helps":0,"answer":["G"],"clicked":[["answer","clicked"],["M ","false"],["B ","false"],["J ","false"],["N ","false"],["D ","false"],["O ","false"],["K ","false"],["C ","false"],["F ","false"],["I ","false"],["H ","false"],["G ","false"],["L ","false"],["E ","false"],["A ","false"]],"correct":0,"scaffold":"none","question":"contain+duration","scenario":"axis","graph":"triangular","condition":"2","session":"CHARLIE","experiment":"reverse","subject":"QEHR1","internal_node_id":"0.0-6.0-4.0","time_elapsed":849319,"trial_index":14,"trial_type":"html","url":"../views/src/external/stimulus.html","rt":63815},{"block":"TT6","helps":0,"answer":["G","O"],"clicked":[["answer","clicked"],["M ","false"],["B ","false"],["J ","false"],["N ","false"],["D ","false"],["O ","false"],["K ","false"],["C ","false"],["F ","false"],["I ","false"],["H ","false"],["G ","false"],["L ","false"],["E ","false"],["A ","false"]],"correct":1,"scaffold":"none","question":"finishes","scenario":"axis","graph":"triangular","condition":"2","session":"CHARLIE","experiment":"reverse","subject":"QEHR1","internal_node_id":"0.0-6.0-6.0","time_elapsed":862990,"trial_index":15,"trial_type":"html","url":"../views/src/external/stimulus.html","rt":12226},{"block":"TT7","helps":0,"answer":["6"],"clicked":[["answer","clicked"],["M ","false"],["B ","false"],["J ","false"],["N ","false"],["D ","false"],["O ","false"],["K ","false"],["C ","false"],["F ","false"],["I ","false"],["H ","false"],["G ","false"],["L ","false"],["E ","false"],["A ","false"]],"correct":1,"scaffold":"none","question":"starts","scenario":"axis","graph":"triangular","condition":"2","session":"CHARLIE","experiment":"reverse","subject":"QEHR1","internal_node_id":"0.0-6.0-5.0","time_elapsed":878120,"trial_index":16,"trial_type":"html","url":"../views/src/external/stimulus.html","rt":13869},{"block":"TT8","helps":0,"answer":["F","M","O"],"clicked":[["answer","clicked"],["M ","false"],["B ","false"],["J ","false"],["N ","false"],["D ","false"],["O ","false"],["K ","false"],["C ","false"],["F ","false"],["I ","false"],["H ","false"],["G ","false"],["L ","false"],["E ","false"],["A ","false"]],"correct":1,"scaffold":"none","question":"during","scenario":"axis","graph":"triangular","condition":"2","session":"CHARLIE","experiment":"reverse","subject":"QEHR1","internal_node_id":"0.0-6.0-7.0","time_elapsed":908191,"trial_index":17,"trial_type":"html","url":"../views/src/external/stimulus.html","rt":28807},{"block":"TT9","helps":0,"answer":["G"],"clicked":[["answer","clicked"],["M ","false"],["B ","false"],["J ","false"],["N ","false"],["D ","false"],["O ","false"],["K ","false"],["C ","false"],["F ","false"],["I ","false"],["H ","false"],["G ","false"],["L ","false"],["E ","false"],["A ","false"]],"correct":1,"scaffold":"none","question":"meets","scenario":"axis","graph":"triangular","condition":"2","session":"CHARLIE","experiment":"reverse","subject":"QEHR1","internal_node_id":"0.0-6.0-8.0","time_elapsed":938904,"trial_index":18,"trial_type":"html","url":"../views/src/external/stimulus.html","rt":29438},{"block":"TT10","helps":0,"answer":["B","J"],"clicked":[["answer","clicked"],["M ","false"],["B ","false"],["J ","false"],["N ","false"],["D ","false"],["O ","false"],["K ","false"],["C ","false"],["F ","false"],["I ","false"],["H ","false"],["G ","false"],["L ","false"],["E ","false"],["A ","false"]],"correct":0,"scaffold":"none","question":"overlap+overlap","scenario":"axis","graph":"triangular","condition":"2","session":"CHARLIE","experiment":"reverse","subject":"QEHR1","internal_node_id":"0.0-6.0-2.0","time_elapsed":997788,"trial_index":19,"trial_type":"html","url":"../views/src/external/stimulus.html","rt":57625},{"condition":"2","session":"CHARLIE","experiment":"reverse","subject":"QEHR1","internal_node_id":"0.0-7.0","time_elapsed":1008869,"trial_index":20,"trial_type":"single-stim","block":"scenario-one","key_press":13,"stimulus":"img/longmire.png","rt":10075},{"block":"LS1","helps":0,"clicked":[["answer","clicked"],["A ","false"],["M ","false"],["D ","false"],["N ","false"],["B ","false"],["F ","false"],["H ","false"],["G ","false"],["O ","false"],["C ","false"],["J ","false"],["I ","false"],["E ","false"],["L ","false"],["K ","false"]],"answer":["C","D","L"],"correct":1,"scaffold":"describe-how","question":"start","scenario":"longmire","graph":"linear","condition":"2","session":"CHARLIE","experiment":"reverse","subject":"QEHR1","internal_node_id":"0.0-8.0-0.0","time_elapsed":1044510,"trial_index":21,"trial_type":"html","url":"../views/src/external/stimulus.html","rt":34388},{"block":"LS2","helps":0,"clicked":[["answer","clicked"],["A ","false"],["M ","false"],["D ","false"],["N ","false"],["B ","false"],["F ","false"],["H ","false"],["G ","false"],["O ","false"],["C ","false"],["J ","false"],["I ","false"],["E ","false"],["L ","false"],["K ","false"]],"answer":["H","J","K","L","O"],"correct":0,"scaffold":"describe-how","question":"end","scenario":"longmire","graph":"linear","condition":"2","session":"CHARLIE","experiment":"reverse","subject":"QEHR1","internal_node_id":"0.0-8.0-1.0","time_elapsed":1064973,"trial_index":22,"trial_type":"html","url":"../views/src/external/stimulus.html","rt":19190},{"block":"LS3","helps":0,"clicked":[["answer","clicked"],["A ","false"],["M ","false"],["D ","false"],["N ","false"],["B ","false"],["F ","false"],["H ","false"],["G ","false"],["O ","false"],["C ","false"],["J ","false"],["I ","false"],["E ","false"],["L ","false"],["K ","false"]],"answer":["G","O"],"correct":1,"scaffold":"describe-how","question":"duration","scenario":"longmire","graph":"linear","condition":"2","session":"CHARLIE","experiment":"reverse","subject":"QEHR1","internal_node_id":"0.0-8.0-2.0","time_elapsed":1083945,"trial_index":23,"trial_type":"html","url":"../views/src/external/stimulus.html","rt":17715},{"block":"LS4","helps":0,"clicked":[["answer","clicked"],["A ","false"],["M ","false"],["D ","false"],["N ","false"],["B ","false"],["F ","false"],["H ","false"],["G ","false"],["O ","false"],["C ","false"],["J ","false"],["I ","false"],["E ","false"],["L ","false"],["K ","false"]],"answer":["1"],"correct":1,"scaffold":"describe-how","question":"midpoint","scenario":"longmire","graph":"linear","condition":"2","session":"CHARLIE","experiment":"reverse","subject":"QEHR1","internal_node_id":"0.0-8.0-3.0","time_elapsed":1097025,"trial_index":24,"trial_type":"html","url":"../views/src/external/stimulus.html","rt":11815},{"block":"LS5","helps":0,"clicked":[["answer","clicked"],["A ","false"],["M ","false"],["D ","false"],["N ","false"],["B ","false"],["F ","false"],["H ","false"],["G ","false"],["O ","false"],["C ","false"],["J ","false"],["I ","false"],["E ","false"],["L ","false"],["K ","false"]],"answer":["A"],"correct":1,"scaffold":"describe-how","question":"start+overlap","scenario":"longmire","graph":"linear","condition":"2","session":"CHARLIE","experiment":"reverse","subject":"QEHR1","internal_node_id":"0.0-8.0-4.0","time_elapsed":1111271,"trial_index":25,"trial_type":"html","url":"../views/src/external/stimulus.html","rt":12995},{"block":"LT1","helps":0,"clicked":[["answer","clicked"],["A ","false"],["M ","false"],["D ","false"],["N ","false"],["B ","false"],["F ","false"],["H ","false"],["G ","false"],["O ","false"],["C ","false"],["J ","false"],["I ","false"],["E ","false"],["L ","false"],["K ","false"]],"answer":["B","C","D","F"],"correct":0,"scaffold":"none","question":"during","scenario":"longmire","graph":"linear","condition":"2","session":"CHARLIE","experiment":"reverse","subject":"QEHR1","internal_node_id":"0.0-9.0-7.0","time_elapsed":1183596,"trial_index":26,"trial_type":"html","url":"../views/src/external/stimulus.html","rt":71071},{"block":"LT2","helps":0,"clicked":[["answer","clicked"],["A ","false"],["M ","false"],["D ","false"],["N ","false"],["B ","false"],["F ","false"],["H ","false"],["G ","false"],["O ","false"],["C ","false"],["J ","false"],["I ","false"],["E ","false"],["L ","false"],["K ","false"]],"answer":["4"],"correct":0,"scaffold":"none","question":"finishes","scenario":"longmire","graph":"linear","condition":"2","session":"CHARLIE","experiment":"reverse","subject":"QEHR1","internal_node_id":"0.0-9.0-6.0","time_elapsed":1221066,"trial_index":27,"trial_type":"html","url":"../views/src/external/stimulus.html","rt":36041},{"block":"LT3","helps":0,"clicked":[["answer","clicked"],["A ","false"],["M ","false"],["D ","false"],["N ","false"],["B ","false"],["F ","false"],["H ","false"],["G ","false"],["O ","false"],["C ","false"],["J ","false"],["I ","false"],["E ","false"],["L ","false"],["K ","false"]],"answer":["A","M"],"correct":0,"scaffold":"none","question":"overlap+overlap","scenario":"longmire","graph":"linear","condition":"2","session":"CHARLIE","experiment":"reverse","subject":"QEHR1","internal_node_id":"0.0-9.0-2.0","time_elapsed":1249538,"trial_index":28,"trial_type":"html","url":"../views/src/external/stimulus.html","rt":27209},{"block":"LT4","helps":0,"clicked":[["answer","clicked"],["A ","false"],["M ","false"],["D ","false"],["N ","false"],["B ","false"],["F ","false"],["H ","false"],["G ","false"],["O ","false"],["C ","false"],["J ","false"],["I ","false"],["E ","false"],["L ","false"],["K ","false"]],"answer":["O"],"correct":1,"scaffold":"none","question":"meets","scenario":"longmire","graph":"linear","condition":"2","session":"CHARLIE","experiment":"reverse","subject":"QEHR1","internal_node_id":"0.0-9.0-8.0","time_elapsed":1264306,"trial_index":29,"trial_type":"html","url":"../views/src/external/stimulus.html","rt":13518},{"block":"LT5","helps":0,"clicked":[["answer","clicked"],["A ","false"],["M ","false"],["D ","false"],["N ","false"],["B ","false"],["F ","false"],["H ","false"],["G ","false"],["O ","false"],["C ","false"],["J ","false"],["I ","false"],["E ","false"],["L ","false"],["K ","false"]],"answer":["K","L"],"correct":1,"scaffold":"none","question":"during+overlap","scenario":"longmire","graph":"linear","condition":"2","session":"CHARLIE","experiment":"reverse","subject":"QEHR1","internal_node_id":"0.0-9.0-3.0","time_elapsed":1310027,"trial_index":30,"trial_type":"html","url":"../views/src/external/stimulus.html","rt":44473},{"block":"LT6","helps":0,"clicked":[["answer","clicked"],["A ","false"],["M ","false"],["D ","false"],["N ","false"],["B ","false"],["F ","false"],["H ","false"],["G ","false"],["O ","false"],["C ","false"],["J ","false"],["I ","false"],["E ","false"],["L ","false"],["K ","false"]],"answer":["B","F"],"correct":0,"scaffold":"none","question":"start+duration","scenario":"longmire","graph":"linear","condition":"2","session":"CHARLIE","experiment":"reverse","subject":"QEHR1","internal_node_id":"0.0-9.0-0.0","time_elapsed":1349520,"trial_index":31,"trial_type":"html","url":"../views/src/external/stimulus.html","rt":38233},{"block":"LT7","helps":0,"clicked":[["answer","clicked"],["A ","false"],["M ","false"],["D ","false"],["N ","false"],["B ","false"],["F ","false"],["H ","false"],["G ","false"],["O ","false"],["C ","false"],["J ","false"],["I ","false"],["E ","false"],["L ","false"],["K ","false"]],"answer":["C"],"correct":1,"scaffold":"none","question":"starts+finishes","scenario":"longmire","graph":"linear","condition":"2","session":"CHARLIE","experiment":"reverse","subject":"QEHR1","internal_node_id":"0.0-9.0-9.0","time_elapsed":1362838,"trial_index":32,"trial_type":"html","url":"../views/src/external/stimulus.html","rt":12067},{"block":"LT8","helps":0,"clicked":[["answer","clicked"],["A ","false"],["M ","false"],["D ","false"],["N ","false"],["B ","false"],["F ","false"],["H ","false"],["G ","false"],["O ","false"],["C ","false"],["J ","false"],["I ","false"],["E ","false"],["L ","false"],["K ","false"]],"answer":["C","J"],"correct":0,"scaffold":"none","question":"contain+duration","scenario":"longmire","graph":"linear","condition":"2","session":"CHARLIE","experiment":"reverse","subject":"QEHR1","internal_node_id":"0.0-9.0-4.0","time_elapsed":1462647,"trial_index":33,"trial_type":"html","url":"../views/src/external/stimulus.html","rt":98557},{"block":"LT9","helps":0,"clicked":[["answer","clicked"],["A ","false"],["M ","false"],["D ","false"],["N ","false"],["B ","false"],["F ","false"],["H ","false"],["G ","false"],["O ","false"],["C ","false"],["J ","false"],["I ","false"],["E ","false"],["L ","false"],["K ","false"]],"answer":["A","B","C","D","F","I"],"correct":1,"scaffold":"none","question":"before+overlap","scenario":"longmire","graph":"linear","condition":"2","session":"CHARLIE","experiment":"reverse","subject":"QEHR1","internal_node_id":"0.0-9.0-1.0","time_elapsed":1521814,"trial_index":34,"trial_type":"html","url":"../views/src/external/stimulus.html","rt":57803},{"block":"LT10","helps":0,"clicked":[["answer","clicked"],["A ","false"],["M ","false"],["D ","false"],["N ","false"],["B ","false"],["F ","false"],["H ","false"],["G ","false"],["O ","false"],["C ","false"],["J ","false"],["I ","false"],["E ","false"],["L ","false"],["K ","false"]],"answer":["8"],"correct":0,"scaffold":"none","question":"starts","scenario":"longmire","graph":"linear","condition":"2","session":"CHARLIE","experiment":"reverse","subject":"QEHR1","internal_node_id":"0.0-9.0-5.0","time_elapsed":1543054,"trial_index":35,"trial_type":"html","url":"../views/src/external/stimulus.html","rt":19985},{"condition":"2","session":"CHARLIE","experiment":"reverse","subject":"QEHR1","internal_node_id":"0.0-10.0","time_elapsed":1553463,"trial_index":36,"trial_type":"single-stim","block":"scenario-draw","key_press":13,"stimulus":"img/jones.png","rt":9403},{"condition":"2","session":"CHARLIE","experiment":"reverse","subject":"QEHR1","internal_node_id":"0.0-11.0","time_elapsed":1902624,"trial_index":37,"trial_type":"html","block":"instructions_drawing","url":"../views/src/external/instructions_draw.html","rt":348020},{"block":"DT1","clicked":[["answer","clicked"]],"answer":["C1"],"correct":1,"scaffold":"none","question":"duration","scenario":"jones","graph":"none","condition":"2","session":"CHARLIE","experiment":"reverse","subject":"QEHR1","internal_node_id":"0.0-12.0","time_elapsed":1971136,"trial_index":38,"trial_type":"html","url":"../views/src/external/stimulus.html","rt":67155},{"block":"DT2","clicked":[["answer","clicked"]],"answer":["Chris","3-4pm"],"correct":1,"scaffold":"none","question":"overlap","scenario":"jones","graph":"none","condition":"2","session":"CHARLIE","experiment":"reverse","subject":"QEHR1","internal_node_id":"0.0-13.0","time_elapsed":2007532,"trial_index":39,"trial_type":"html","url":"../views/src/external/stimulus.html","rt":35044},{"condition":"2","session":"CHARLIE","experiment":"reverse","subject":"QEHR1","internal_node_id":"0.0-14.0","time_elapsed":2020744,"trial_index":40,"trial_type":"survey-text","block":"demo-1","responses":"{\"Q0\":\"18\",\"Q1\":\"UNITED STATES OF AMERICA\"}","rt":12203},{"condition":"2","session":"CHARLIE","experiment":"reverse","subject":"QEHR1","internal_node_id":"0.0-15.0","time_elapsed":2038562,"trial_index":41,"trial_type":"survey-multi-choice","block":"demo-2","responses":"{\"Q0\":\"English\",\"Q1\":\"First\",\"Q2\":\"Social Sciences (incl. CogSci)\",\"Q3\":\"Female\",\"Q4\":\"the first one (linear\"}","rt":16802},{"condition":"2","session":"CHARLIE","experiment":"reverse","subject":"QEHR1","internal_node_id":"0.0-16.0","time_elapsed":2041610,"trial_index":42,"trial_type":"html","block":"debrief","url":"../views/src/external/debrief.html","rt":1796}],"__v":0}
{"_id":{"$oid":"58b9d3cabccd690004ff2a48"},"data":[{"condition":2,"session":"charlie","experiment":"experiment","subject":"6T9O9","internal_node_id":"0.0-0.0","time_elapsed":260104,"trial_index":0,"trial_type":"single-stim","block":"phone","key_press":13,"stimulus":"img/phone.png","rt":260097},{"condition":2,"session":"charlie","experiment":"experiment","subject":"6T9O9","internal_node_id":"0.0-1.0","time_elapsed":268932,"trial_index":1,"trial_type":"html","block":"consent","url":"../views/src/external/consent.html","rt":7488},{"condition":2,"session":"charlie","experiment":"experiment","subject":"6T9O9","internal_node_id":"0.0-2.0","time_elapsed":277804,"trial_index":2,"trial_type":"survey-text","block":"codes","responses":"{\"Q0\":\"CHARLIE\",\"Q1\":\"2\"}","rt":7865},{"condition":2,"session":"charlie","experiment":"experiment","subject":"6T9O9","internal_node_id":"0.0-3.0","time_elapsed":292364,"trial_index":3,"trial_type":"html","block":"instructions_lab","url":"../views/src/external/instructions_lab.html","rt":13143},{"condition":2,"session":"charlie","experiment":"experiment","subject":"6T9O9","internal_node_id":"0.0-4.0","time_elapsed":307055,"trial_index":4,"trial_type":"single-stim","block":"scenario-one","key_press":13,"stimulus":"img/longmire.png","rt":13688},{"block":"LS1","helps":0,"clicked":[["answer","clicked"],["A ","false"],["M ","false"],["D ","false"],["N ","false"],["B ","false"],["F ","false"],["H ","false"],["G ","false"],["O ","false"],["C ","false"],["J ","false"],["I ","false"],["E ","false"],["L ","false"],["K ","false"]],"answer":["C","D","L"],"correct":1,"scaffold":"describe-how","question":"start","scenario":"longmire","graph":"linear","condition":2,"session":"charlie","experiment":"experiment","subject":"6T9O9","internal_node_id":"0.0-5.0-0.0","time_elapsed":325839,"trial_index":5,"trial_type":"html","url":"../views/src/external/stimulus.html","rt":17346},{"block":"LS2","helps":0,"clicked":[["answer","clicked"],["A ","false"],["M ","false"],["D ","false"],["N ","false"],["B ","false"],["F ","false"],["H ","false"],["G ","false"],["O ","false"],["C ","false"],["J ","false"],["I ","false"],["E ","false"],["L ","false"],["K ","false"]],"answer":["H","J","K","L","M","N","O"],"correct":1,"scaffold":"describe-how","question":"end","scenario":"longmire","graph":"linear","condition":2,"session":"charlie","experiment":"experiment","subject":"6T9O9","internal_node_id":"0.0-5.0-1.0","time_elapsed":360281,"trial_index":6,"trial_type":"html","url":"../views/src/external/stimulus.html","rt":33155},{"block":"LS3","helps":0,"clicked":[["answer","clicked"],["A ","false"],["M ","false"],["D ","false"],["N ","false"],["B ","false"],["F ","false"],["H ","false"],["G ","false"],["O ","false"],["C ","false"],["J ","false"],["I ","false"],["E ","false"],["L ","false"],["K ","false"]],"answer":["G","O"],"correct":1,"scaffold":"describe-how","question":"duration","scenario":"longmire","graph":"linear","condition":2,"session":"charlie","experiment":"experiment","subject":"6T9O9","internal_node_id":"0.0-5.0-2.0","time_elapsed":379711,"trial_index":7,"trial_type":"html","url":"../views/src/external/stimulus.html","rt":18176},{"block":"LS4","helps":0,"clicked":[["answer","clicked"],["A ","false"],["M ","false"],["D ","false"],["N ","false"],["B ","false"],["F ","false"],["H ","false"],["G ","false"],["O ","false"],["C ","false"],["J ","false"],["I ","false"],["E ","false"],["L ","false"],["K ","false"]],"answer":["1"],"correct":1,"scaffold":"describe-how","question":"midpoint","scenario":"longmire","graph":"linear","condition":2,"session":"charlie","experiment":"experiment","subject":"6T9O9","internal_node_id":"0.0-5.0-3.0","time_elapsed":396915,"trial_index":8,"trial_type":"html","url":"../views/src/external/stimulus.html","rt":15953},{"block":"LS5","helps":0,"clicked":[["answer","clicked"],["A ","false"],["M ","false"],["D ","false"],["N ","false"],["B ","false"],["F ","false"],["H ","false"],["G ","false"],["O ","false"],["C ","false"],["J ","false"],["I ","false"],["E ","false"],["L ","false"],["K ","false"]],"answer":["A"],"correct":1,"scaffold":"describe-how","question":"start+overlap","scenario":"longmire","graph":"linear","condition":2,"session":"charlie","experiment":"experiment","subject":"6T9O9","internal_node_id":"0.0-5.0-4.0","time_elapsed":416988,"trial_index":9,"trial_type":"html","url":"../views/src/external/stimulus.html","rt":18820},{"block":"LT1","helps":0,"clicked":[["answer","clicked"],["A ","false"],["M ","false"],["D ","false"],["N ","false"],["B ","false"],["F ","false"],["H ","false"],["G ","false"],["O ","false"],["C ","false"],["J ","false"],["I ","false"],["E ","false"],["L ","false"],["K ","false"]],"answer":["4","5"],"correct":1,"scaffold":"none","question":"finishes","scenario":"longmire","graph":"linear","condition":2,"session":"charlie","experiment":"experiment","subject":"6T9O9","internal_node_id":"0.0-6.0-6.0","time_elapsed":468070,"trial_index":10,"trial_type":"html","url":"../views/src/external/stimulus.html","rt":49832},{"block":"LT2","helps":0,"clicked":[["answer","clicked"],["A ","false"],["M ","false"],["D ","false"],["N ","false"],["B ","false"],["F ","false"],["H ","false"],["G ","false"],["O ","false"],["C ","false"],["J ","false"],["I ","false"],["E ","false"],["L ","false"],["K ","false"]],"answer":["B","C","D","F","G","H","I","J","L","O"],"correct":0,"scaffold":"none","question":"during","scenario":"longmire","graph":"linear","condition":2,"session":"charlie","experiment":"experiment","subject":"6T9O9","internal_node_id":"0.0-6.0-7.0","time_elapsed":553962,"trial_index":11,"trial_type":"html","url":"../views/src/external/stimulus.html","rt":84627},{"block":"LT3","helps":0,"clicked":[["answer","clicked"],["A ","false"],["M ","false"],["D ","false"],["N ","false"],["B ","false"],["F ","false"],["H ","false"],["G ","false"],["O ","false"],["C ","false"],["J ","false"],["I ","false"],["E ","false"],["L ","false"],["K ","false"]],"answer":["G","O"],"correct":1,"scaffold":"none","question":"contain+duration","scenario":"longmire","graph":"linear","condition":2,"session":"charlie","experiment":"experiment","subject":"6T9O9","internal_node_id":"0.0-6.0-4.0","time_elapsed":594948,"trial_index":12,"trial_type":"html","url":"../views/src/external/stimulus.html","rt":39631},{"block":"LT4","helps":0,"clicked":[["answer","clicked"],["A ","false"],["M ","false"],["D ","false"],["N ","false"],["B ","false"],["F ","false"],["H ","false"],["G ","false"],["O ","false"],["C ","false"],["J ","false"],["I ","false"],["E ","false"],["L ","false"],["K ","false"]],"answer":["C"],"correct":1,"scaffold":"none","question":"starts+finishes","scenario":"longmire","graph":"linear","condition":2,"session":"charlie","experiment":"experiment","subject":"6T9O9","internal_node_id":"0.0-6.0-9.0","time_elapsed":624515,"trial_index":13,"trial_type":"html","url":"../views/src/external/stimulus.html","rt":28314},{"block":"LT5","helps":0,"clicked":[["answer","clicked"],["A ","false"],["M ","false"],["D ","false"],["N ","false"],["B ","false"],["F ","false"],["H ","false"],["G ","false"],["O ","false"],["C ","false"],["J ","false"],["I ","false"],["E ","false"],["L ","false"],["K ","false"]],"answer":["O"],"correct":1,"scaffold":"none","question":"meets","scenario":"longmire","graph":"linear","condition":2,"session":"charlie","experiment":"experiment","subject":"6T9O9","internal_node_id":"0.0-6.0-8.0","time_elapsed":648616,"trial_index":14,"trial_type":"html","url":"../views/src/external/stimulus.html","rt":22813},{"block":"LT6","helps":0,"clicked":[["answer","clicked"],["A ","false"],["M ","false"],["D ","false"],["N ","false"],["B ","false"],["F ","false"],["H ","false"],["G ","false"],["O ","false"],["C ","false"],["J ","false"],["I ","false"],["E ","false"],["L ","false"],["K ","false"]],"answer":["A","B","D","F"],"correct":1,"scaffold":"none","question":"start+duration","scenario":"longmire","graph":"linear","condition":2,"session":"charlie","experiment":"experiment","subject":"6T9O9","internal_node_id":"0.0-6.0-0.0","time_elapsed":679231,"trial_index":15,"trial_type":"html","url":"../views/src/external/stimulus.html","rt":29357},{"block":"LT7","helps":0,"clicked":[["answer","clicked"],["A ","false"],["M ","false"],["D ","false"],["N ","false"],["B ","false"],["F ","false"],["H ","false"],["G ","false"],["O ","false"],["C ","false"],["J ","false"],["I ","false"],["E ","false"],["L ","false"],["K ","false"]],"answer":["K","L"],"correct":1,"scaffold":"none","question":"during+overlap","scenario":"longmire","graph":"linear","condition":2,"session":"charlie","experiment":"experiment","subject":"6T9O9","internal_node_id":"0.0-6.0-3.0","time_elapsed":729532,"trial_index":16,"trial_type":"html","url":"../views/src/external/stimulus.html","rt":49045},{"block":"LT8","helps":0,"clicked":[["answer","clicked"],["A ","false"],["M ","false"],["D ","false"],["N ","false"],["B ","false"],["F ","false"],["H ","false"],["G ","false"],["O ","false"],["C ","false"],["J ","false"],["I ","false"],["E ","false"],["L ","false"],["K ","false"]],"answer":["A","B","C","D","F"],"correct":0,"scaffold":"none","question":"before+overlap","scenario":"longmire","graph":"linear","condition":2,"session":"charlie","experiment":"experiment","subject":"6T9O9","internal_node_id":"0.0-6.0-1.0","time_elapsed":760130,"trial_index":17,"trial_type":"html","url":"../views/src/external/stimulus.html","rt":29346},{"block":"LT9","helps":0,"clicked":[["answer","clicked"],["A ","false"],["M ","false"],["D ","false"],["N ","false"],["B ","false"],["F ","false"],["H ","false"],["G ","false"],["O ","false"],["C ","false"],["J ","false"],["I ","false"],["E ","false"],["L ","false"],["K ","false"]],"answer":["A","M","N"],"correct":1,"scaffold":"none","question":"overlap+overlap","scenario":"longmire","graph":"linear","condition":2,"session":"charlie","experiment":"experiment","subject":"6T9O9","internal_node_id":"0.0-6.0-2.0","time_elapsed":784149,"trial_index":18,"trial_type":"html","url":"../views/src/external/stimulus.html","rt":22751},{"block":"LT10","helps":0,"clicked":[["answer","clicked"],["A ","false"],["M ","false"],["D ","false"],["N ","false"],["B ","false"],["F ","false"],["H ","false"],["G ","false"],["O ","false"],["C ","false"],["J ","false"],["I ","false"],["E ","false"],["L ","false"],["K ","false"]],"answer":["6","8"],"correct":1,"scaffold":"none","question":"starts","scenario":"longmire","graph":"linear","condition":2,"session":"charlie","experiment":"experiment","subject":"6T9O9","internal_node_id":"0.0-6.0-5.0","time_elapsed":815636,"trial_index":19,"trial_type":"html","url":"../views/src/external/stimulus.html","rt":30225},{"condition":2,"session":"charlie","experiment":"experiment","subject":"6T9O9","internal_node_id":"0.0-7.0","time_elapsed":828673,"trial_index":20,"trial_type":"single-stim","block":"scenario-two","key_press":13,"stimulus":"img/axis.png","rt":12032},{"block":"TS1","helps":0,"clicked":[["answer","clicked"],["M ","false"],["B ","false"],["J ","false"],["N ","false"],["D ","false"],["O ","false"],["K ","false"],["C ","false"],["F ","false"],["I ","false"],["H ","false"],["G ","false"],["L ","false"],["E ","false"],["A ","false"]],"answer":["G"],"correct":0,"scaffold":"describe-how","question":"start","scenario":"axis","graph":"triangular","condition":2,"session":"charlie","experiment":"experiment","subject":"6T9O9","internal_node_id":"0.0-8.0-0.0","time_elapsed":847403,"trial_index":21,"trial_type":"html","url":"../views/src/external/stimulus.html","rt":17469},{"block":"TS2","helps":0,"clicked":[["answer","clicked"],["M ","false"],["B ","false"],["J ","false"],["N ","false"],["D ","false"],["O ","false"],["K ","false"],["C ","false"],["F ","false"],["I ","false"],["H ","false"],["G ","false"],["L ","false"],["E ","false"],["A ","false"]],"answer":["4"],"correct":1,"scaffold":"describe-how","question":"end","scenario":"axis","graph":"triangular","condition":2,"session":"charlie","experiment":"experiment","subject":"6T9O9","internal_node_id":"0.0-8.0-1.0","time_elapsed":950835,"trial_index":22,"trial_type":"html","url":"../views/src/external/stimulus.html","rt":102177},{"block":"TS3","helps":0,"clicked":[["answer","clicked"],["M ","false"],["B ","false"],["J ","false"],["N ","false"],["D ","false"],["O ","false"],["K ","false"],["C ","false"],["F ","false"],["I ","false"],["H ","false"],["G ","false"],["L ","false"],["E ","false"],["A ","false"]],"answer":["A","E","G","H","I","L"],"correct":0,"scaffold":"describe-how","question":"duration","scenario":"axis","graph":"triangular","condition":2,"session":"charlie","experiment":"experiment","subject":"6T9O9","internal_node_id":"0.0-8.0-2.0","time_elapsed":985099,"trial_index":23,"trial_type":"html","url":"../views/src/external/stimulus.html","rt":32932},{"block":"TS4","helps":0,"clicked":[["answer","clicked"],["M ","false"],["B ","false"],["J ","false"],["N ","false"],["D ","false"],["O ","false"],["K ","false"],["C ","false"],["F ","false"],["I ","false"],["H ","false"],["G ","false"],["L ","false"],["E ","false"],["A ","false"]],"answer":["8"],"correct":1,"scaffold":"describe-how","question":"midpoint","scenario":"axis","graph":"triangular","condition":2,"session":"charlie","experiment":"experiment","subject":"6T9O9","internal_node_id":"0.0-8.0-3.0","time_elapsed":1010622,"trial_index":24,"trial_type":"html","url":"../views/src/external/stimulus.html","rt":24270},{"block":"TS5","helps":0,"clicked":[["answer","clicked"],["M ","false"],["B ","false"],["J ","false"],["N ","false"],["D ","false"],["O ","false"],["K ","false"],["C ","false"],["F ","false"],["I ","false"],["H ","false"],["G ","false"],["L ","false"],["E ","false"],["A ","false"]],"answer":["7"],"correct":1,"scaffold":"describe-how","question":"start+overlap","scenario":"axis","graph":"triangular","condition":2,"session":"charlie","experiment":"experiment","subject":"6T9O9","internal_node_id":"0.0-8.0-4.0","time_elapsed":1049917,"trial_index":25,"trial_type":"html","url":"../views/src/external/stimulus.html","rt":38042},{"block":"TS1","helps":0,"answer":["G","O"],"clicked":[["answer","clicked"],["M ","false"],["B ","false"],["J ","false"],["N ","false"],["D ","false"],["O ","false"],["K ","false"],["C ","false"],["F ","false"],["I ","false"],["H ","false"],["G ","false"],["L ","false"],["E ","false"],["A ","false"]],"correct":1,"scaffold":"none","question":"finishes","scenario":"axis","graph":"triangular","condition":2,"session":"charlie","experiment":"experiment","subject":"6T9O9","internal_node_id":"0.0-9.0-6.0","time_elapsed":1060038,"trial_index":26,"trial_type":"html","url":"../views/src/external/stimulus.html","rt":8874},{"block":"TS2","helps":0,"answer":["F","M","O"],"clicked":[["answer","clicked"],["M ","false"],["B ","false"],["J ","false"],["N ","false"],["D ","false"],["O ","false"],["K ","false"],["C ","false"],["F ","false"],["I ","false"],["H ","false"],["G ","false"],["L ","false"],["E ","false"],["A ","false"]],"correct":1,"scaffold":"none","question":"during","scenario":"axis","graph":"triangular","condition":2,"session":"charlie","experiment":"experiment","subject":"6T9O9","internal_node_id":"0.0-9.0-7.0","time_elapsed":1084049,"trial_index":27,"trial_type":"html","url":"../views/src/external/stimulus.html","rt":22743},{"block":"TS3","helps":0,"answer":["A"],"clicked":[["answer","clicked"],["M ","false"],["B ","false"],["J ","false"],["N ","false"],["D ","false"],["O ","false"],["K ","false"],["C ","false"],["F ","false"],["I ","false"],["H ","false"],["G ","false"],["L ","false"],["E ","false"],["A ","false"]],"correct":1,"scaffold":"none","question":"during+overlap","scenario":"axis","graph":"triangular","condition":2,"session":"charlie","experiment":"experiment","subject":"6T9O9","internal_node_id":"0.0-9.0-3.0","time_elapsed":1124572,"trial_index":28,"trial_type":"html","url":"../views/src/external/stimulus.html","rt":39273},{"block":"TS4","helps":0,"answer":["F","G","M","O"],"clicked":[["answer","clicked"],["M ","false"],["B ","false"],["J ","false"],["N ","false"],["D ","false"],["O ","false"],["K ","false"],["C ","false"],["F ","false"],["I ","false"],["H ","false"],["G ","false"],["L ","false"],["E ","false"],["A ","false"]],"correct":1,"scaffold":"none","question":"before+overlap","scenario":"axis","graph":"triangular","condition":2,"session":"charlie","experiment":"experiment","subject":"6T9O9","internal_node_id":"0.0-9.0-1.0","time_elapsed":1160197,"trial_index":29,"trial_type":"html","url":"../views/src/external/stimulus.html","rt":34370},{"block":"TS5","helps":0,"answer":["B","C","J"],"clicked":[["answer","clicked"],["M ","false"],["B ","false"],["J ","false"],["N ","false"],["D ","false"],["O ","false"],["K ","false"],["C ","false"],["F ","false"],["I ","false"],["H ","false"],["G ","false"],["L ","false"],["E ","false"],["A ","false"]],"correct":0,"scaffold":"none","question":"overlap+overlap","scenario":"axis","graph":"triangular","condition":2,"session":"charlie","experiment":"experiment","subject":"6T9O9","internal_node_id":"0.0-9.0-2.0","time_elapsed":1181543,"trial_index":30,"trial_type":"html","url":"../views/src/external/stimulus.html","rt":20100},{"block":"TS6","helps":0,"answer":["G"],"clicked":[["answer","clicked"],["M ","false"],["B ","false"],["J ","false"],["N ","false"],["D ","false"],["O ","false"],["K ","false"],["C ","false"],["F ","false"],["I ","false"],["H ","false"],["G ","false"],["L ","false"],["E ","false"],["A ","false"]],"correct":1,"scaffold":"none","question":"starts+finishes","scenario":"axis","graph":"triangular","condition":2,"session":"charlie","experiment":"experiment","subject":"6T9O9","internal_node_id":"0.0-9.0-9.0","time_elapsed":1197424,"trial_index":31,"trial_type":"html","url":"../views/src/external/stimulus.html","rt":14634},{"block":"TS7","helps":0,"answer":["G"],"clicked":[["answer","clicked"],["M ","false"],["B ","false"],["J ","false"],["N ","false"],["D ","false"],["O ","false"],["K ","false"],["C ","false"],["F ","false"],["I ","false"],["H ","false"],["G ","false"],["L ","false"],["E ","false"],["A ","false"]],"correct":1,"scaffold":"none","question":"meets","scenario":"axis","graph":"triangular","condition":2,"session":"charlie","experiment":"experiment","subject":"6T9O9","internal_node_id":"0.0-9.0-8.0","time_elapsed":1228865,"trial_index":32,"trial_type":"html","url":"../views/src/external/stimulus.html","rt":30192},{"block":"TS8","helps":0,"answer":["6"],"clicked":[["answer","clicked"],["M ","false"],["B ","false"],["J ","false"],["N ","false"],["D ","false"],["O ","false"],["K ","false"],["C ","false"],["F ","false"],["I ","false"],["H ","false"],["G ","false"],["L ","false"],["E ","false"],["A ","false"]],"correct":1,"scaffold":"none","question":"starts","scenario":"axis","graph":"triangular","condition":2,"session":"charlie","experiment":"experiment","subject":"6T9O9","internal_node_id":"0.0-9.0-5.0","time_elapsed":1253024,"trial_index":33,"trial_type":"html","url":"../views/src/external/stimulus.html","rt":22902},{"block":"TS9","helps":0,"answer":["9"],"clicked":[["answer","clicked"],["M ","false"],["B ","false"],["J ","false"],["N ","false"],["D ","false"],["O ","false"],["K ","false"],["C ","false"],["F ","false"],["I ","false"],["H ","false"],["G ","false"],["L ","false"],["E ","false"],["A ","false"]],"correct":1,"scaffold":"none","question":"start+duration","scenario":"axis","graph":"triangular","condition":2,"session":"charlie","experiment":"experiment","subject":"6T9O9","internal_node_id":"0.0-9.0-0.0","time_elapsed":1270316,"trial_index":34,"trial_type":"html","url":"../views/src/external/stimulus.html","rt":16042},{"block":"TS10","helps":0,"answer":["D","M","N","O"],"clicked":[["answer","clicked"],["M ","false"],["B ","false"],["J ","false"],["N ","false"],["D ","false"],["O ","false"],["K ","false"],["C ","false"],["F ","false"],["I ","false"],["H ","false"],["G ","false"],["L ","false"],["E ","false"],["A ","false"]],"correct":1,"scaffold":"none","question":"contain+duration","scenario":"axis","graph":"triangular","condition":2,"session":"charlie","experiment":"experiment","subject":"6T9O9","internal_node_id":"0.0-9.0-4.0","time_elapsed":1303981,"trial_index":35,"trial_type":"html","url":"../views/src/external/stimulus.html","rt":32409},{"condition":2,"session":"charlie","experiment":"experiment","subject":"6T9O9","internal_node_id":"0.0-10.0","time_elapsed":1326271,"trial_index":36,"trial_type":"single-stim","block":"scenario-draw","key_press":13,"stimulus":"img/jones.png","rt":21286},{"condition":2,"session":"charlie","experiment":"experiment","subject":"6T9O9","internal_node_id":"0.0-11.0","time_elapsed":1827613,"trial_index":37,"trial_type":"html","block":"instructions_drawing","url":"../views/src/external/instructions_draw.html","rt":500211},{"block":"DT1","clicked":[["answer","clicked"]],"answer":["C1"],"correct":1,"scaffold":"none","question":"duration","scenario":"jones","graph":"none","condition":2,"session":"charlie","experiment":"experiment","subject":"6T9O9","internal_node_id":"0.0-12.0","time_elapsed":1875955,"trial_index":38,"trial_type":"html","url":"../views/src/external/stimulus.html","rt":46976},{"block":"DT2","clicked":[["answer","clicked"]],"answer":["Chris","3-4pm"],"correct":1,"scaffold":"none","question":"overlap","scenario":"jones","graph":"none","condition":2,"session":"charlie","experiment":"experiment","subject":"6T9O9","internal_node_id":"0.0-13.0","time_elapsed":1906972,"trial_index":39,"trial_type":"html","url":"../views/src/external/stimulus.html","rt":29774},{"condition":2,"session":"charlie","experiment":"experiment","subject":"6T9O9","internal_node_id":"0.0-14.0","time_elapsed":1918139,"trial_index":40,"trial_type":"survey-text","block":"demo-1","responses":"{\"Q0\":\"18\",\"Q1\":\"USA\"}","rt":10161},{"condition":2,"session":"charlie","experiment":"experiment","subject":"6T9O9","internal_node_id":"0.0-15.0","time_elapsed":1947718,"trial_index":41,"trial_type":"survey-multi-choice","block":"demo-2","responses":"{\"Q0\":\"Other\",\"Q1\":\"First\",\"Q2\":\"Biomedical \u0026 Health Sciences\",\"Q3\":\"Female\",\"Q4\":\"the first one (linear\"}","rt":28564},{"condition":2,"session":"charlie","experiment":"experiment","subject":"6T9O9","internal_node_id":"0.0-16.0","time_elapsed":1983076,"trial_index":42,"trial_type":"html","block":"debrief","url":"../views/src/external/debrief.html","rt":34119}],"__v":0}
{"_id":{"$oid":"58b9d3cbbccd690004ff2a49"},"data":[{"condition":4,"session":"charlie","experiment":"experiment","subject":"QV2H9","internal_node_id":"0.0-0.0","time_elapsed":243013,"trial_index":0,"trial_type":"single-stim","block":"phone","key_press":13,"stimulus":"img/phone.png","rt":243007},{"condition":4,"session":"charlie","experiment":"experiment","subject":"QV2H9","internal_node_id":"0.0-1.0","time_elapsed":266065,"trial_index":1,"trial_type":"html","block":"consent","url":"../views/src/external/consent.html","rt":21801},{"condition":4,"session":"charlie","experiment":"experiment","subject":"QV2H9","internal_node_id":"0.0-2.0","time_elapsed":277355,"trial_index":2,"trial_type":"survey-text","block":"codes","responses":"{\"Q0\":\"CHARLIE\",\"Q1\":\"4\"}","rt":10280},{"condition":4,"session":"charlie","experiment":"experiment","subject":"QV2H9","internal_node_id":"0.0-3.0","time_elapsed":311806,"trial_index":3,"trial_type":"html","block":"instructions_lab","url":"../views/src/external/instructions_lab.html","rt":33251},{"condition":4,"session":"charlie","experiment":"experiment","subject":"QV2H9","internal_node_id":"0.0-4.0","time_elapsed":330281,"trial_index":4,"trial_type":"single-stim","block":"scenario-one","key_press":13,"stimulus":"img/longmire.png","rt":17471},{"block":"LS1","helps":0,"clicked":[["answer","clicked"],["A ","false"],["M ","false"],["D ","false"],["N ","false"],["B ","false"],["F ","false"],["H ","false"],["G ","false"],["O ","false"],["C ","false"],["J ","false"],["I ","false"],["E ","false"],["L ","false"],["K ","false"]],"answer":["C","D","L"],"correct":1,"scaffold":"show-interactive","question":"start","scenario":"longmire","graph":"linear","condition":4,"session":"charlie","experiment":"experiment","subject":"QV2H9","internal_node_id":"0.0-5.0-0.0","time_elapsed":354487,"trial_index":5,"trial_type":"html","url":"../views/src/external/stimulus.html","rt":22763},{"block":"LS2","helps":0,"clicked":[["answer","clicked"],["A ","false"],["M ","false"],["D ","false"],["N ","false"],["B ","false"],["F ","false"],["H ","false"],["G ","false"],["O ","false"],["C ","false"],["J ","false"],["I ","false"],["E ","false"],["L ","false"],["K ","false"]],"answer":["E","G"],"correct":0,"scaffold":"show-interactive","question":"end","scenario":"longmire","graph":"linear","condition":4,"session":"charlie","experiment":"experiment","subject":"QV2H9","internal_node_id":"0.0-5.0-1.0","time_elapsed":368862,"trial_index":6,"trial_type":"html","url":"../views/src/external/stimulus.html","rt":13044},{"block":"LS3","helps":0,"clicked":[["answer","clicked"],["A ","false"],["M ","false"],["D ","false"],["N ","false"],["B ","false"],["F ","false"],["H ","false"],["G ","false"],["O ","false"],["C ","false"],["J ","false"],["I ","false"],["E ","false"],["L ","false"],["K ","false"]],"answer":["G","O"],"correct":1,"scaffold":"show-interactive","question":"duration","scenario":"longmire","graph":"linear","condition":4,"session":"charlie","experiment":"experiment","subject":"QV2H9","internal_node_id":"0.0-5.0-2.0","time_elapsed":392236,"trial_index":7,"trial_type":"html","url":"../views/src/external/stimulus.html","rt":22121},{"block":"LS4","helps":0,"clicked":[["answer","clicked"],["A ","false"],["M ","false"],["D ","false"],["N ","false"],["B ","false"],["F ","false"],["H ","false"],["G ","false"],["O ","false"],["C ","false"],["J ","false"],["I ","false"],["E ","false"],["L ","false"],["K ","false"]],"answer":["1"],"correct":1,"scaffold":"show-interactive","question":"midpoint","scenario":"longmire","graph":"linear","condition":4,"session":"charlie","experiment":"experiment","subject":"QV2H9","internal_node_id":"0.0-5.0-3.0","time_elapsed":408701,"trial_index":8,"trial_type":"html","url":"../views/src/external/stimulus.html","rt":15197},{"block":"LS5","helps":0,"clicked":[["answer","clicked"],["A ","false"],["M ","false"],["D ","false"],["N ","false"],["B ","false"],["F ","false"],["H ","false"],["G ","false"],["O ","false"],["C ","false"],["J ","false"],["I ","false"],["E ","false"],["L ","false"],["K ","false"]],"answer":["O"],"correct":0,"scaffold":"show-interactive","question":"start+overlap","scenario":"longmire","graph":"linear","condition":4,"session":"charlie","experiment":"experiment","subject":"QV2H9","internal_node_id":"0.0-5.0-4.0","time_elapsed":444411,"trial_index":9,"trial_type":"html","url":"../views/src/external/stimulus.html","rt":34463},{"block":"LT1","helps":0,"clicked":[["answer","clicked"],["A ","false"],["M ","false"],["D ","false"],["N ","false"],["B ","false"],["F ","false"],["H ","false"],["G ","false"],["O ","false"],["C ","false"],["J ","false"],["I ","false"],["E ","false"],["L ","false"],["K ","false"]],"answer":["C"],"correct":1,"scaffold":"none","question":"starts+finishes","scenario":"longmire","graph":"linear","condition":4,"session":"charlie","experiment":"experiment","subject":"QV2H9","internal_node_id":"0.0-6.0-9.0","time_elapsed":493410,"trial_index":10,"trial_type":"html","url":"../views/src/external/stimulus.html","rt":47751},{"block":"LT2","helps":0,"clicked":[["answer","clicked"],["A ","false"],["M ","false"],["D ","false"],["N ","false"],["B ","false"],["F ","false"],["H ","false"],["G ","false"],["O ","false"],["C ","false"],["J ","false"],["I ","false"],["E ","false"],["L ","false"],["K ","false"]],"answer":["C"],"correct":0,"scaffold":"none","question":"before+overlap","scenario":"longmire","graph":"linear","condition":4,"session":"charlie","experiment":"experiment","subject":"QV2H9","internal_node_id":"0.0-6.0-1.0","time_elapsed":518165,"trial_index":11,"trial_type":"html","url":"../views/src/external/stimulus.html","rt":23506},{"block":"LT3","helps":0,"clicked":[["answer","clicked"],["A ","false"],["M ","false"],["D ","false"],["N ","false"],["B ","false"],["F ","false"],["H ","false"],["G ","false"],["O ","false"],["C ","false"],["J ","false"],["I ","false"],["E ","false"],["L ","false"],["K ","false"]],"answer":["O"],"correct":1,"scaffold":"none","question":"meets","scenario":"longmire","graph":"linear","condition":4,"session":"charlie","experiment":"experiment","subject":"QV2H9","internal_node_id":"0.0-6.0-8.0","time_elapsed":536262,"trial_index":12,"trial_type":"html","url":"../views/src/external/stimulus.html","rt":16846},{"block":"LT4","helps":0,"clicked":[["answer","clicked"],["A ","false"],["M ","false"],["D ","false"],["N ","false"],["B ","false"],["F ","false"],["H ","false"],["G ","false"],["O ","false"],["C ","false"],["J ","false"],["I ","false"],["E ","false"],["L ","false"],["K ","false"]],"answer":["A","M","N"],"correct":1,"scaffold":"none","question":"overlap+overlap","scenario":"longmire","graph":"linear","condition":4,"session":"charlie","experiment":"experiment","subject":"QV2H9","internal_node_id":"0.0-6.0-2.0","time_elapsed":571731,"trial_index":13,"trial_type":"html","url":"../views/src/external/stimulus.html","rt":33971},{"block":"LT5","helps":0,"clicked":[["answer","clicked"],["A ","false"],["M ","false"],["D ","false"],["N ","false"],["B ","false"],["F ","false"],["H ","false"],["G ","false"],["O ","false"],["C ","false"],["J ","false"],["I ","false"],["E ","false"],["L ","false"],["K ","false"]],"answer":["A","B","D","F"],"correct":1,"scaffold":"none","question":"start+duration","scenario":"longmire","graph":"linear","condition":4,"session":"charlie","experiment":"experiment","subject":"QV2H9","internal_node_id":"0.0-6.0-0.0","time_elapsed":602368,"trial_index":14,"trial_type":"html","url":"../views/src/external/stimulus.html","rt":29369},{"block":"LT6","helps":0,"clicked":[["answer","clicked"],["A ","false"],["M ","false"],["D ","false"],["N ","false"],["B ","false"],["F ","false"],["H ","false"],["G ","false"],["O ","false"],["C ","false"],["J ","false"],["I ","false"],["E ","false"],["L ","false"],["K ","false"]],"answer":["G","O"],"correct":1,"scaffold":"none","question":"contain+duration","scenario":"longmire","graph":"linear","condition":4,"session":"charlie","experiment":"experiment","subject":"QV2H9","internal_node_id":"0.0-6.0-4.0","time_elapsed":643067,"trial_index":15,"trial_type":"html","url":"../views/src/external/stimulus.html","rt":39451},{"block":"LT7","helps":0,"clicked":[["answer","clicked"],["A ","false"],["M ","false"],["D ","false"],["N ","false"],["B ","false"],["F ","false"],["H ","false"],["G ","false"],["O ","false"],["C ","false"],["J ","false"],["I ","false"],["E ","false"],["L ","false"],["K ","false"]],"answer":["4","5"],"correct":1,"scaffold":"none","question":"finishes","scenario":"longmire","graph":"linear","condition":4,"session":"charlie","experiment":"experiment","subject":"QV2H9","internal_node_id":"0.0-6.0-6.0","time_elapsed":692916,"trial_index":16,"trial_type":"html","url":"../views/src/external/stimulus.html","rt":48601},{"block":"LT8","helps":0,"clicked":[["answer","clicked"],["A ","false"],["M ","false"],["D ","false"],["N ","false"],["B ","false"],["F ","false"],["H ","false"],["G ","false"],["O ","false"],["C ","false"],["J ","false"],["I ","false"],["E ","false"],["L ","false"],["K ","false"]],"answer":["4","5"],"correct":0,"scaffold":"none","question":"starts","scenario":"longmire","graph":"linear","condition":4,"session":"charlie","experiment":"experiment","subject":"QV2H9","internal_node_id":"0.0-6.0-5.0","time_elapsed":719685,"trial_index":17,"trial_type":"html","url":"../views/src/external/stimulus.html","rt":25520},{"block":"LT9","helps":0,"clicked":[["answer","clicked"],["A ","false"],["M ","false"],["D ","false"],["N ","false"],["B ","false"],["F ","false"],["H ","false"],["G ","false"],["O ","false"],["C ","false"],["J ","false"],["I ","false"],["E ","false"],["L ","false"],["K ","false"]],"answer":["B","C","D","E","F","G","H","I","J","L","O"],"correct":0,"scaffold":"none","question":"during","scenario":"longmire","graph":"linear","condition":4,"session":"charlie","experiment":"experiment","subject":"QV2H9","internal_node_id":"0.0-6.0-7.0","time_elapsed":830049,"trial_index":18,"trial_type":"html","url":"../views/src/external/stimulus.html","rt":109119},{"block":"LT10","helps":0,"clicked":[["answer","clicked"],["A ","false"],["M ","false"],["D ","false"],["N ","false"],["B ","false"],["F ","false"],["H ","false"],["G ","false"],["O ","false"],["C ","false"],["J ","false"],["I ","false"],["E ","false"],["L ","false"],["K ","false"]],"answer":["L"],"correct":0,"scaffold":"none","question":"during+overlap","scenario":"longmire","graph":"linear","condition":4,"session":"charlie","experiment":"experiment","subject":"QV2H9","internal_node_id":"0.0-6.0-3.0","time_elapsed":861580,"trial_index":19,"trial_type":"html","url":"../views/src/external/stimulus.html","rt":30189},{"condition":4,"session":"charlie","experiment":"experiment","subject":"QV2H9","internal_node_id":"0.0-7.0","time_elapsed":883138,"trial_index":20,"trial_type":"single-stim","block":"scenario-two","key_press":13,"stimulus":"img/axis.png","rt":20552},{"block":"TS1","helps":0,"clicked":[["answer","clicked"],["M ","false"],["B ","false"],["J ","false"],["N ","false"],["D ","false"],["O ","false"],["K ","false"],["C ","false"],["F ","false"],["I ","false"],["H ","false"],["G ","false"],["L ","false"],["E ","false"],["A ","false"]],"answer":["G"],"correct":0,"scaffold":"show-interactive","question":"start","scenario":"axis","graph":"triangular","condition":4,"session":"charlie","experiment":"experiment","subject":"QV2H9","internal_node_id":"0.0-8.0-0.0","time_elapsed":912765,"trial_index":21,"trial_type":"html","url":"../views/src/external/stimulus.html","rt":28377},{"block":"TS2","helps":0,"clicked":[["answer","clicked"],["M ","false"],["B ","false"],["J ","false"],["N ","false"],["D ","false"],["O ","false"],["K ","false"],["C ","false"],["F ","false"],["I ","false"],["H ","false"],["G ","false"],["L ","false"],["E ","false"],["A ","false"]],"answer":["4"],"correct":1,"scaffold":"show-interactive","question":"end","scenario":"axis","graph":"triangular","condition":4,"session":"charlie","experiment":"experiment","subject":"QV2H9","internal_node_id":"0.0-8.0-1.0","time_elapsed":927234,"trial_index":22,"trial_type":"html","url":"../views/src/external/stimulus.html","rt":13217},{"block":"TS3","helps":0,"clicked":[["answer","clicked"],["M ","false"],["B ","false"],["J ","false"],["N ","false"],["D ","false"],["O ","false"],["K ","false"],["C ","false"],["F ","false"],["I ","false"],["H ","false"],["G ","false"],["L ","false"],["E ","false"],["A ","false"]],"answer":["A","C","E","F","G","H","I","K","L"],"correct":1,"scaffold":"show-interactive","question":"duration","scenario":"axis","graph":"triangular","condition":4,"session":"charlie","experiment":"experiment","subject":"QV2H9","internal_node_id":"0.0-8.0-2.0","time_elapsed":979050,"trial_index":23,"trial_type":"html","url":"../views/src/external/stimulus.html","rt":50562},{"block":"TS4","helps":0,"clicked":[["answer","clicked"],["M ","false"],["B ","false"],["J ","false"],["N ","false"],["D ","false"],["O ","false"],["K ","false"],["C ","false"],["F ","false"],["I ","false"],["H ","false"],["G ","false"],["L ","false"],["E ","false"],["A ","false"]],"answer":["8"],"correct":1,"scaffold":"show-interactive","question":"midpoint","scenario":"axis","graph":"triangular","condition":4,"session":"charlie","experiment":"experiment","subject":"QV2H9","internal_node_id":"0.0-8.0-3.0","time_elapsed":1048198,"trial_index":24,"trial_type":"html","url":"../views/src/external/stimulus.html","rt":67896},{"block":"TS5","helps":0,"clicked":[["answer","clicked"],["M ","false"],["B ","false"],["J ","false"],["N ","false"],["D ","false"],["O ","false"],["K ","false"],["C ","false"],["F ","false"],["I ","false"],["H ","false"],["G ","false"],["L ","false"],["E ","false"],["A ","false"]],"answer":["1"],"correct":0,"scaffold":"show-interactive","question":"start+overlap","scenario":"axis","graph":"triangular","condition":4,"session":"charlie","experiment":"experiment","subject":"QV2H9","internal_node_id":"0.0-8.0-4.0","time_elapsed":1075261,"trial_index":25,"trial_type":"html","url":"../views/src/external/stimulus.html","rt":25718},{"block":"TS1","helps":0,"answer":["9"],"clicked":[["answer","clicked"],["M ","false"],["B ","false"],["J ","false"],["N ","false"],["D ","false"],["O ","false"],["K ","false"],["C ","false"],["F ","false"],["I ","false"],["H ","false"],["G ","false"],["L ","false"],["E ","false"],["A ","false"]],"correct":1,"scaffold":"none","question":"start+duration","scenario":"axis","graph":"triangular","condition":4,"session":"charlie","experiment":"experiment","subject":"QV2H9","internal_node_id":"0.0-9.0-0.0","time_elapsed":1093058,"trial_index":26,"trial_type":"html","url":"../views/src/external/stimulus.html","rt":16543},{"block":"TS2","helps":0,"answer":["E"],"clicked":[["answer","clicked"],["M ","false"],["B ","false"],["J ","false"],["N ","false"],["D ","false"],["O ","false"],["K ","false"],["C ","false"],["F ","false"],["I ","false"],["H ","false"],["G ","false"],["L ","false"],["E ","false"],["A ","false"]],"correct":0,"scaffold":"none","question":"contain+duration","scenario":"axis","graph":"triangular","condition":4,"session":"charlie","experiment":"experiment","subject":"QV2H9","internal_node_id":"0.0-9.0-4.0","time_elapsed":1111463,"trial_index":27,"trial_type":"html","url":"../views/src/external/stimulus.html","rt":17153},{"block":"TS3","helps":0,"answer":["G","O"],"clicked":[["answer","clicked"],["M ","false"],["B ","false"],["J ","false"],["N ","false"],["D ","false"],["O ","false"],["K ","false"],["C ","false"],["F ","false"],["I ","false"],["H ","false"],["G ","false"],["L ","false"],["E ","false"],["A ","false"]],"correct":1,"scaffold":"none","question":"finishes","scenario":"axis","graph":"triangular","condition":4,"session":"charlie","experiment":"experiment","subject":"QV2H9","internal_node_id":"0.0-9.0-6.0","time_elapsed":1123835,"trial_index":28,"trial_type":"html","url":"../views/src/external/stimulus.html","rt":11122},{"block":"TS4","helps":0,"answer":["G"],"clicked":[["answer","clicked"],["M ","false"],["B ","false"],["J ","false"],["N ","false"],["D ","false"],["O ","false"],["K ","false"],["C ","false"],["F ","false"],["I ","false"],["H ","false"],["G ","false"],["L ","false"],["E ","false"],["A ","false"]],"correct":1,"scaffold":"none","question":"starts+finishes","scenario":"axis","graph":"triangular","condition":4,"session":"charlie","experiment":"experiment","subject":"QV2H9","internal_node_id":"0.0-9.0-9.0","time_elapsed":1136688,"trial_index":29,"trial_type":"html","url":"../views/src/external/stimulus.html","rt":11601},{"block":"TS5","helps":0,"answer":["G"],"clicked":[["answer","clicked"],["M ","false"],["B ","false"],["J ","false"],["N ","false"],["D ","false"],["O ","false"],["K ","false"],["C ","false"],["F ","false"],["I ","false"],["H ","false"],["G ","false"],["L ","false"],["E ","false"],["A ","false"]],"correct":1,"scaffold":"none","question":"meets","scenario":"axis","graph":"triangular","condition":4,"session":"charlie","experiment":"experiment","subject":"QV2H9","internal_node_id":"0.0-9.0-8.0","time_elapsed":1193138,"trial_index":30,"trial_type":"html","url":"../views/src/external/stimulus.html","rt":55186},{"block":"TS6","helps":0,"answer":["M"],"clicked":[["answer","clicked"],["M ","false"],["B ","false"],["J ","false"],["N ","false"],["D ","false"],["O ","false"],["K ","false"],["C ","false"],["F ","false"],["I ","false"],["H ","false"],["G ","false"],["L ","false"],["E ","false"],["A ","false"]],"correct":0,"scaffold":"none","question":"during","scenario":"axis","graph":"triangular","condition":4,"session":"charlie","experiment":"experiment","subject":"QV2H9","internal_node_id":"0.0-9.0-7.0","time_elapsed":1207470,"trial_index":31,"trial_type":"html","url":"../views/src/external/stimulus.html","rt":13081},{"block":"TS7","helps":0,"answer":["F","G","M","O"],"clicked":[["answer","clicked"],["M ","false"],["B ","false"],["J ","false"],["N ","false"],["D ","false"],["O ","false"],["K ","false"],["C ","false"],["F ","false"],["I ","false"],["H ","false"],["G ","false"],["L ","false"],["E ","false"],["A ","false"]],"correct":1,"scaffold":"none","question":"before+overlap","scenario":"axis","graph":"triangular","condition":4,"session":"charlie","experiment":"experiment","subject":"QV2H9","internal_node_id":"0.0-9.0-1.0","time_elapsed":1238766,"trial_index":32,"trial_type":"html","url":"../views/src/external/stimulus.html","rt":30049},{"block":"TS8","helps":0,"answer":["A"],"clicked":[["answer","clicked"],["M ","false"],["B ","false"],["J ","false"],["N ","false"],["D ","false"],["O ","false"],["K ","false"],["C ","false"],["F ","false"],["I ","false"],["H ","false"],["G ","false"],["L ","false"],["E ","false"],["A ","false"]],"correct":1,"scaffold":"none","question":"during+overlap","scenario":"axis","graph":"triangular","condition":4,"session":"charlie","experiment":"experiment","subject":"QV2H9","internal_node_id":"0.0-9.0-3.0","time_elapsed":1291936,"trial_index":33,"trial_type":"html","url":"../views/src/external/stimulus.html","rt":51921},{"block":"TS9","helps":0,"answer":["6"],"clicked":[["answer","clicked"],["M ","false"],["B ","false"],["J ","false"],["N ","false"],["D ","false"],["O ","false"],["K ","false"],["C ","false"],["F ","false"],["I ","false"],["H ","false"],["G ","false"],["L ","false"],["E ","false"],["A ","false"]],"correct":1,"scaffold":"none","question":"starts","scenario":"axis","graph":"triangular","condition":4,"session":"charlie","experiment":"experiment","subject":"QV2H9","internal_node_id":"0.0-9.0-5.0","time_elapsed":1307632,"trial_index":34,"trial_type":"html","url":"../views/src/external/stimulus.html","rt":14435},{"block":"TS10","helps":0,"answer":["B"],"clicked":[["answer","clicked"],["M ","false"],["B ","false"],["J ","false"],["N ","false"],["D ","false"],["O ","false"],["K ","false"],["C ","false"],["F ","false"],["I ","false"],["H ","false"],["G ","false"],["L ","false"],["E ","false"],["A ","false"]],"correct":0,"scaffold":"none","question":"overlap+overlap","scenario":"axis","graph":"triangular","condition":4,"session":"charlie","experiment":"experiment","subject":"QV2H9","internal_node_id":"0.0-9.0-2.0","time_elapsed":1333178,"trial_index":35,"trial_type":"html","url":"../views/src/external/stimulus.html","rt":24296},{"condition":4,"session":"charlie","experiment":"experiment","subject":"QV2H9","internal_node_id":"0.0-10.0","time_elapsed":1353256,"trial_index":36,"trial_type":"single-stim","block":"scenario-draw","key_press":13,"stimulus":"img/jones.png","rt":19074},{"condition":4,"session":"charlie","experiment":"experiment","subject":"QV2H9","internal_node_id":"0.0-11.0","time_elapsed":1723367,"trial_index":37,"trial_type":"html","block":"instructions_drawing","url":"../views/src/external/instructions_draw.html","rt":368981},{"block":"DT1","clicked":[["answer","clicked"]],"answer":[],"correct":0,"scaffold":"none","question":"duration","scenario":"jones","graph":"none","condition":4,"session":"charlie","experiment":"experiment","subject":"QV2H9","internal_node_id":"0.0-12.0","time_elapsed":1801565,"trial_index":38,"trial_type":"html","url":"../views/src/external/stimulus.html","rt":76839},{"block":"DT2","clicked":[["answer","clicked"]],"answer":["Chris","3-4pm"],"correct":1,"scaffold":"none","question":"overlap","scenario":"jones","graph":"none","condition":4,"session":"charlie","experiment":"experiment","subject":"QV2H9","internal_node_id":"0.0-13.0","time_elapsed":1862384,"trial_index":39,"trial_type":"html","url":"../views/src/external/stimulus.html","rt":59488},{"condition":4,"session":"charlie","experiment":"experiment","subject":"QV2H9","internal_node_id":"0.0-14.0","time_elapsed":1870471,"trial_index":40,"trial_type":"survey-text","block":"demo-1","responses":"{\"Q0\":\"21\",\"Q1\":\"USA\"}","rt":7084},{"condition":4,"session":"charlie","experiment":"experiment","subject":"QV2H9","internal_node_id":"0.0-15.0","time_elapsed":1901642,"trial_index":41,"trial_type":"survey-multi-choice","block":"demo-2","responses":"{\"Q0\":\"Mandarin or Cantonese\",\"Q1\":\"Fourth\",\"Q2\":\"Social Sciences (incl. CogSci)\",\"Q3\":\"Male\",\"Q4\":\"the second one (triangular)\"}","rt":30151},{"condition":4,"session":"charlie","experiment":"experiment","subject":"QV2H9","internal_node_id":"0.0-16.0","time_elapsed":1968603,"trial_index":42,"trial_type":"html","block":"debrief","url":"../views/src/external/debrief.html","rt":65716}],"__v":0}
