{"_id":{"$oid":"58c2f943039350000489263c"},"data":[{"condition":4,"session":"hotel","experiment":"experiment","subject":"6FBAA","internal_node_id":"0.0-0.0","time_elapsed":55899,"trial_index":0,"trial_type":"single-stim","block":"phone","key_press":13,"stimulus":"img/phone.png","rt":55891},{"condition":4,"session":"hotel","experiment":"experiment","subject":"6FBAA","internal_node_id":"0.0-1.0","time_elapsed":61782,"trial_index":1,"trial_type":"html","block":"consent","url":"../views/src/external/consent.html","rt":4692},{"condition":4,"session":"hotel","experiment":"experiment","subject":"6FBAA","internal_node_id":"0.0-2.0","time_elapsed":74935,"trial_index":2,"trial_type":"survey-text","block":"codes","responses":"{\"Q0\":\"HOTEL\",\"Q1\":\"4\"}","rt":12148},{"condition":4,"session":"hotel","experiment":"experiment","subject":"6FBAA","internal_node_id":"0.0-3.0","time_elapsed":86366,"trial_index":3,"trial_type":"html","block":"instructions_lab","url":"../views/src/external/instructions_lab.html","rt":10216},{"condition":4,"session":"hotel","experiment":"experiment","subject":"6FBAA","internal_node_id":"0.0-4.0","time_elapsed":102537,"trial_index":4,"trial_type":"single-stim","block":"scenario-one","key_press":13,"stimulus":"img/longmire.png","rt":15167},{"block":"linear_scaffolded","helps":0,"clicked":[["answer","clicked"],["A ","false"],["M ","false"],["D ","false"],["N ","false"],["B ","false"],["F ","false"],["H ","false"],["G ","false"],["O ","false"],["C ","false"],["J ","false"],["I ","false"],["E ","false"],["L ","false"],["K ","false"]],"answer":["C","D","L"],"correct":1,"scaffold":"show-interactive","question":"start","scenario":"longmire","graph":"linear","condition":4,"session":"hotel","experiment":"experiment","subject":"6FBAA","internal_node_id":"0.0-5.0-0.0","time_elapsed":134961,"trial_index":5,"trial_type":"html","url":"../views/src/external/stimulus.html","rt":30928},{"block":"linear_scaffolded","helps":0,"clicked":[["answer","clicked"],["A ","false"],["M ","false"],["D ","false"],["N ","false"],["B ","false"],["F ","false"],["H ","false"],["G ","false"],["O ","false"],["C ","false"],["J ","false"],["I ","false"],["E ","false"],["L ","false"],["K ","false"]],"answer":["F","J","K","L","M","N","O"],"correct":0,"scaffold":"show-interactive","question":"end","scenario":"longmire","graph":"linear","condition":4,"session":"hotel","experiment":"experiment","subject":"6FBAA","internal_node_id":"0.0-5.0-1.0","time_elapsed":187952,"trial_index":6,"trial_type":"html","url":"../views/src/external/stimulus.html","rt":51711},{"block":"linear_scaffolded","helps":0,"clicked":[["answer","clicked"],["A ","false"],["M ","false"],["D ","false"],["N ","false"],["B ","false"],["F ","false"],["H ","false"],["G ","false"],["O ","false"],["C ","false"],["J ","false"],["I ","false"],["E ","false"],["L ","false"],["K ","false"]],"answer":["G","O"],"correct":1,"scaffold":"show-interactive","question":"duration","scenario":"longmire","graph":"linear","condition":4,"session":"hotel","experiment":"experiment","subject":"6FBAA","internal_node_id":"0.0-5.0-2.0","time_elapsed":213890,"trial_index":7,"trial_type":"html","url":"../views/src/external/stimulus.html","rt":24681},{"block":"linear_scaffolded","helps":0,"clicked":[["answer","clicked"],["A ","false"],["M ","false"],["D ","false"],["N ","false"],["B ","false"],["F ","false"],["H ","false"],["G ","false"],["O ","false"],["C ","false"],["J ","false"],["I ","false"],["E ","false"],["L ","false"],["K ","false"]],"answer":["1"],"correct":1,"scaffold":"show-interactive","question":"midpoint","scenario":"longmire","graph":"linear","condition":4,"session":"hotel","experiment":"experiment","subject":"6FBAA","internal_node_id":"0.0-5.0-3.0","time_elapsed":235321,"trial_index":8,"trial_type":"html","url":"../views/src/external/stimulus.html","rt":20173},{"block":"linear_scaffolded","helps":0,"clicked":[["answer","clicked"],["A ","false"],["M ","false"],["D ","false"],["N ","false"],["B ","false"],["F ","false"],["H ","false"],["G ","false"],["O ","false"],["C ","false"],["J ","false"],["I ","false"],["E ","false"],["L ","false"],["K ","false"]],"answer":["A"],"correct":1,"scaffold":"show-interactive","question":"start+overlap","scenario":"longmire","graph":"linear","condition":4,"session":"hotel","experiment":"experiment","subject":"6FBAA","internal_node_id":"0.0-5.0-4.0","time_elapsed":250342,"trial_index":9,"trial_type":"html","url":"../views/src/external/stimulus.html","rt":13764},{"block":"linear_testing","helps":0,"clicked":[["answer","clicked"],["A ","false"],["M ","false"],["D ","false"],["N ","false"],["B ","false"],["F ","true"],["H ","false"],["G ","false"],["O ","false"],["C ","false"],["J ","false"],["I ","false"],["E ","false"],["L ","false"],["K ","false"]],"answer":["O"],"correct":1,"scaffold":"none","question":"meets","scenario":"longmire","graph":"linear","condition":4,"session":"hotel","experiment":"experiment","subject":"6FBAA","internal_node_id":"0.0-6.0-8.0","time_elapsed":274102,"trial_index":10,"trial_type":"html","url":"../views/src/external/stimulus.html","rt":22506},{"block":"linear_testing","helps":0,"clicked":[["answer","clicked"],["A ","false"],["M ","false"],["D ","false"],["N ","false"],["B ","false"],["F ","false"],["H ","false"],["G ","false"],["O ","false"],["C ","false"],["J ","false"],["I ","false"],["E ","true"],["L ","false"],["K ","false"]],"answer":["A","B","D","F","H","I","J","K"],"correct":0,"scaffold":"none","question":"during","scenario":"longmire","graph":"linear","condition":4,"session":"hotel","experiment":"experiment","subject":"6FBAA","internal_node_id":"0.0-6.0-7.0","time_elapsed":350426,"trial_index":11,"trial_type":"html","url":"../views/src/external/stimulus.html","rt":75059},{"block":"linear_testing","helps":0,"clicked":[["answer","clicked"],["A ","false"],["M ","false"],["D ","false"],["N ","false"],["B ","false"],["F ","false"],["H ","false"],["G ","false"],["O ","false"],["C ","false"],["J ","true"],["I ","false"],["E ","false"],["L ","false"],["K ","false"]],"answer":["G","O"],"correct":1,"scaffold":"none","question":"contain+duration","scenario":"longmire","graph":"linear","condition":4,"session":"hotel","experiment":"experiment","subject":"6FBAA","internal_node_id":"0.0-6.0-4.0","time_elapsed":382925,"trial_index":12,"trial_type":"html","url":"../views/src/external/stimulus.html","rt":31166},{"block":"linear_testing","helps":0,"clicked":[["answer","clicked"],["A ","false"],["M ","false"],["D ","false"],["N ","false"],["B ","false"],["F ","false"],["H ","false"],["G ","true"],["O ","false"],["C ","false"],["J ","false"],["I ","false"],["E ","false"],["L ","false"],["K ","false"]],"answer":["C","E","I","K","L"],"correct":0,"scaffold":"none","question":"during+overlap","scenario":"longmire","graph":"linear","condition":4,"session":"hotel","experiment":"experiment","subject":"6FBAA","internal_node_id":"0.0-6.0-3.0","time_elapsed":435178,"trial_index":13,"trial_type":"html","url":"../views/src/external/stimulus.html","rt":50988},{"block":"linear_testing","helps":0,"clicked":[["answer","clicked"],["A ","false"],["M ","false"],["D ","false"],["N ","false"],["B ","false"],["F ","false"],["H ","false"],["G ","false"],["O ","false"],["C ","false"],["J ","false"],["I ","false"],["E ","false"],["L ","false"],["K ","false"]],"answer":["4","5"],"correct":1,"scaffold":"none","question":"finishes","scenario":"longmire","graph":"linear","condition":4,"session":"hotel","experiment":"experiment","subject":"6FBAA","internal_node_id":"0.0-6.0-6.0","time_elapsed":491598,"trial_index":14,"trial_type":"html","url":"../views/src/external/stimulus.html","rt":55165},{"block":"linear_testing","helps":0,"clicked":[["answer","clicked"],["A ","false"],["M ","false"],["D ","false"],["N ","true"],["B ","false"],["F ","false"],["H ","false"],["G ","false"],["O ","false"],["C ","false"],["J ","false"],["I ","false"],["E ","false"],["L ","false"],["K ","false"]],"answer":["A","B","D","F"],"correct":0,"scaffold":"none","question":"before+overlap","scenario":"longmire","graph":"linear","condition":4,"session":"hotel","experiment":"experiment","subject":"6FBAA","internal_node_id":"0.0-6.0-1.0","time_elapsed":524069,"trial_index":15,"trial_type":"html","url":"../views/src/external/stimulus.html","rt":31218},{"block":"linear_testing","helps":0,"clicked":[["answer","clicked"],["A ","false"],["M ","false"],["D ","false"],["N ","false"],["B ","false"],["F ","false"],["H ","false"],["G ","false"],["O ","false"],["C ","false"],["J ","false"],["I ","false"],["E ","false"],["L ","false"],["K ","false"]],"answer":["6","8"],"correct":1,"scaffold":"none","question":"starts","scenario":"longmire","graph":"linear","condition":4,"session":"hotel","experiment":"experiment","subject":"6FBAA","internal_node_id":"0.0-6.0-5.0","time_elapsed":564967,"trial_index":16,"trial_type":"html","url":"../views/src/external/stimulus.html","rt":39641},{"block":"linear_testing","helps":0,"clicked":[["answer","clicked"],["A ","false"],["M ","false"],["D ","false"],["N ","false"],["B ","false"],["F ","false"],["H ","false"],["G ","false"],["O ","false"],["C ","false"],["J ","false"],["I ","false"],["E ","false"],["L ","false"],["K ","false"]],"answer":["A","B","D","F"],"correct":1,"scaffold":"none","question":"start+duration","scenario":"longmire","graph":"linear","condition":4,"session":"hotel","experiment":"experiment","subject":"6FBAA","internal_node_id":"0.0-6.0-0.0","time_elapsed":607538,"trial_index":17,"trial_type":"html","url":"../views/src/external/stimulus.html","rt":41308},{"block":"linear_testing","helps":0,"clicked":[["answer","clicked"],["A ","false"],["M ","false"],["D ","false"],["N ","false"],["B ","false"],["F ","false"],["H ","false"],["G ","false"],["O ","false"],["C ","false"],["J ","false"],["I ","false"],["E ","false"],["L ","false"],["K ","false"]],"answer":["C"],"correct":1,"scaffold":"none","question":"starts+finishes","scenario":"longmire","graph":"linear","condition":4,"session":"hotel","experiment":"experiment","subject":"6FBAA","internal_node_id":"0.0-6.0-9.0","time_elapsed":636379,"trial_index":18,"trial_type":"html","url":"../views/src/external/stimulus.html","rt":27524},{"block":"linear_testing","helps":0,"clicked":[["answer","clicked"],["A ","false"],["M ","false"],["D ","true"],["N ","false"],["B ","false"],["F ","false"],["H ","true"],["G ","false"],["O ","false"],["C ","false"],["J ","false"],["I ","false"],["E ","false"],["L ","false"],["K ","false"]],"answer":["A"],"correct":0,"scaffold":"none","question":"overlap+overlap","scenario":"longmire","graph":"linear","condition":4,"session":"hotel","experiment":"experiment","subject":"6FBAA","internal_node_id":"0.0-6.0-2.0","time_elapsed":673692,"trial_index":19,"trial_type":"html","url":"../views/src/external/stimulus.html","rt":36054},{"condition":4,"session":"hotel","experiment":"experiment","subject":"6FBAA","internal_node_id":"0.0-7.0","time_elapsed":694184,"trial_index":20,"trial_type":"single-stim","block":"scenario-two","key_press":13,"stimulus":"img/axis.png","rt":19487},{"block":"triangular_scaffolded","helps":0,"clicked":[["answer","clicked"],["M ","false"],["B ","false"],["J ","false"],["N ","false"],["D ","false"],["O ","false"],["K ","false"],["C ","false"],["F ","false"],["I ","false"],["H ","false"],["G ","false"],["L ","false"],["E ","false"],["A ","false"]],"answer":["G"],"correct":0,"scaffold":"show-interactive","question":"start","scenario":"axis","graph":"triangular","condition":4,"session":"hotel","experiment":"experiment","subject":"6FBAA","internal_node_id":"0.0-8.0-0.0","time_elapsed":722444,"trial_index":21,"trial_type":"html","url":"../views/src/external/stimulus.html","rt":26986},{"block":"triangular_scaffolded","helps":0,"clicked":[["answer","clicked"],["M ","false"],["B ","false"],["J ","false"],["N ","false"],["D ","false"],["O ","false"],["K ","false"],["C ","false"],["F ","false"],["I ","false"],["H ","false"],["G ","false"],["L ","false"],["E ","false"],["A ","false"]],"answer":["4"],"correct":1,"scaffold":"show-interactive","question":"end","scenario":"axis","graph":"triangular","condition":4,"session":"hotel","experiment":"experiment","subject":"6FBAA","internal_node_id":"0.0-8.0-1.0","time_elapsed":738447,"trial_index":22,"trial_type":"html","url":"../views/src/external/stimulus.html","rt":14751},{"block":"triangular_scaffolded","helps":0,"clicked":[["answer","clicked"],["M ","false"],["B ","false"],["J ","false"],["N ","false"],["D ","false"],["O ","false"],["K ","false"],["C ","false"],["F ","false"],["I ","false"],["H ","false"],["G ","false"],["L ","false"],["E ","false"],["A ","false"]],"answer":["A","C","E","F","G","H","I","K","L"],"correct":1,"scaffold":"show-interactive","question":"duration","scenario":"axis","graph":"triangular","condition":4,"session":"hotel","experiment":"experiment","subject":"6FBAA","internal_node_id":"0.0-8.0-2.0","time_elapsed":779015,"trial_index":23,"trial_type":"html","url":"../views/src/external/stimulus.html","rt":39304},{"block":"triangular_scaffolded","helps":0,"clicked":[["answer","clicked"],["M ","false"],["B ","false"],["J ","false"],["N ","false"],["D ","false"],["O ","false"],["K ","false"],["C ","false"],["F ","false"],["I ","false"],["H ","false"],["G ","false"],["L ","false"],["E ","false"],["A ","false"]],"answer":["8"],"correct":1,"scaffold":"show-interactive","question":"midpoint","scenario":"axis","graph":"triangular","condition":4,"session":"hotel","experiment":"experiment","subject":"6FBAA","internal_node_id":"0.0-8.0-3.0","time_elapsed":802961,"trial_index":24,"trial_type":"html","url":"../views/src/external/stimulus.html","rt":22693},{"block":"triangular_scaffolded","helps":0,"clicked":[["answer","clicked"],["M ","false"],["B ","false"],["J ","false"],["N ","false"],["D ","false"],["O ","false"],["K ","false"],["C ","false"],["F ","false"],["I ","false"],["H ","false"],["G ","false"],["L ","false"],["E ","false"],["A ","false"]],"answer":["1"],"correct":0,"scaffold":"show-interactive","question":"start+overlap","scenario":"axis","graph":"triangular","condition":4,"session":"hotel","experiment":"experiment","subject":"6FBAA","internal_node_id":"0.0-8.0-4.0","time_elapsed":830801,"trial_index":25,"trial_type":"html","url":"../views/src/external/stimulus.html","rt":26531},{"block":"triangular_testing","helps":0,"answer":["M"],"clicked":[["answer","clicked"],["M ","false"],["B ","false"],["J ","false"],["N ","false"],["D ","false"],["O ","false"],["K ","false"],["C ","false"],["F ","false"],["I ","false"],["H ","false"],["G ","false"],["L ","false"],["E ","false"],["A ","false"]],"correct":0,"scaffold":"none","question":"during+overlap","scenario":"axis","graph":"triangular","condition":4,"session":"hotel","experiment":"experiment","subject":"6FBAA","internal_node_id":"0.0-9.0-3.0","time_elapsed":870812,"trial_index":26,"trial_type":"html","url":"../views/src/external/stimulus.html","rt":38745},{"block":"triangular_testing","helps":0,"answer":["G","O"],"clicked":[["answer","clicked"],["M ","false"],["B ","false"],["J ","false"],["N ","false"],["D ","false"],["O ","false"],["K ","false"],["C ","false"],["F ","false"],["I ","false"],["H ","false"],["G ","false"],["L ","false"],["E ","false"],["A ","false"]],"correct":1,"scaffold":"none","question":"finishes","scenario":"axis","graph":"triangular","condition":4,"session":"hotel","experiment":"experiment","subject":"6FBAA","internal_node_id":"0.0-9.0-6.0","time_elapsed":885726,"trial_index":27,"trial_type":"html","url":"../views/src/external/stimulus.html","rt":13654},{"block":"triangular_testing","helps":0,"answer":["6"],"clicked":[["answer","clicked"],["M ","false"],["B ","false"],["J ","false"],["N ","false"],["D ","false"],["O ","false"],["K ","false"],["C ","false"],["F ","false"],["I ","false"],["H ","false"],["G ","false"],["L ","false"],["E ","false"],["A ","false"]],"correct":1,"scaffold":"none","question":"starts","scenario":"axis","graph":"triangular","condition":4,"session":"hotel","experiment":"experiment","subject":"6FBAA","internal_node_id":"0.0-9.0-5.0","time_elapsed":908653,"trial_index":28,"trial_type":"html","url":"../views/src/external/stimulus.html","rt":21667},{"block":"triangular_testing","helps":0,"answer":["F","G","H","I","O"],"clicked":[["answer","clicked"],["M ","false"],["B ","false"],["J ","false"],["N ","false"],["D ","false"],["O ","false"],["K ","false"],["C ","false"],["F ","false"],["I ","false"],["H ","false"],["G ","false"],["L ","false"],["E ","false"],["A ","false"]],"correct":0,"scaffold":"none","question":"before+overlap","scenario":"axis","graph":"triangular","condition":4,"session":"hotel","experiment":"experiment","subject":"6FBAA","internal_node_id":"0.0-9.0-1.0","time_elapsed":944225,"trial_index":29,"trial_type":"html","url":"../views/src/external/stimulus.html","rt":34314},{"block":"triangular_testing","helps":0,"answer":["F","M","O"],"clicked":[["answer","clicked"],["M ","false"],["B ","false"],["J ","false"],["N ","false"],["D ","false"],["O ","false"],["K ","false"],["C ","false"],["F ","false"],["I ","false"],["H ","false"],["G ","false"],["L ","false"],["E ","false"],["A ","false"]],"correct":1,"scaffold":"none","question":"during","scenario":"axis","graph":"triangular","condition":4,"session":"hotel","experiment":"experiment","subject":"6FBAA","internal_node_id":"0.0-9.0-7.0","time_elapsed":957694,"trial_index":30,"trial_type":"html","url":"../views/src/external/stimulus.html","rt":12218},{"block":"triangular_testing","helps":0,"answer":["G"],"clicked":[["answer","clicked"],["M ","false"],["B ","false"],["J ","false"],["N ","false"],["D ","false"],["O ","false"],["K ","false"],["C ","false"],["F ","false"],["I ","false"],["H ","false"],["G ","false"],["L ","false"],["E ","false"],["A ","false"]],"correct":1,"scaffold":"none","question":"starts+finishes","scenario":"axis","graph":"triangular","condition":4,"session":"hotel","experiment":"experiment","subject":"6FBAA","internal_node_id":"0.0-9.0-9.0","time_elapsed":970626,"trial_index":31,"trial_type":"html","url":"../views/src/external/stimulus.html","rt":11672},{"block":"triangular_testing","helps":0,"answer":["F","G","M","O"],"clicked":[["answer","clicked"],["M ","false"],["B ","false"],["J ","false"],["N ","false"],["D ","false"],["O ","false"],["K ","false"],["C ","false"],["F ","false"],["I ","false"],["H ","false"],["G ","false"],["L ","false"],["E ","false"],["A ","false"]],"correct":0,"scaffold":"none","question":"meets","scenario":"axis","graph":"triangular","condition":4,"session":"hotel","experiment":"experiment","subject":"6FBAA","internal_node_id":"0.0-9.0-8.0","time_elapsed":1026399,"trial_index":32,"trial_type":"html","url":"../views/src/external/stimulus.html","rt":54518},{"block":"triangular_testing","helps":0,"answer":["D","M","N","O"],"clicked":[["answer","clicked"],["M ","false"],["B ","false"],["J ","false"],["N ","false"],["D ","false"],["O ","false"],["K ","false"],["C ","false"],["F ","false"],["I ","false"],["H ","false"],["G ","false"],["L ","false"],["E ","false"],["A ","false"]],"correct":1,"scaffold":"none","question":"contain+duration","scenario":"axis","graph":"triangular","condition":4,"session":"hotel","experiment":"experiment","subject":"6FBAA","internal_node_id":"0.0-9.0-4.0","time_elapsed":1047665,"trial_index":33,"trial_type":"html","url":"../views/src/external/stimulus.html","rt":20012},{"block":"triangular_testing","helps":0,"answer":["B"],"clicked":[["answer","clicked"],["M ","false"],["B ","false"],["J ","false"],["N ","false"],["D ","false"],["O ","false"],["K ","false"],["C ","false"],["F ","false"],["I ","false"],["H ","false"],["G ","false"],["L ","false"],["E ","false"],["A ","false"]],"correct":0,"scaffold":"none","question":"overlap+overlap","scenario":"axis","graph":"triangular","condition":4,"session":"hotel","experiment":"experiment","subject":"6FBAA","internal_node_id":"0.0-9.0-2.0","time_elapsed":1058863,"trial_index":34,"trial_type":"html","url":"../views/src/external/stimulus.html","rt":9942},{"block":"triangular_testing","helps":0,"answer":["9"],"clicked":[["answer","clicked"],["M ","false"],["B ","false"],["J ","false"],["N ","false"],["D ","false"],["O ","false"],["K ","false"],["C ","false"],["F ","false"],["I ","false"],["H ","false"],["G ","false"],["L ","false"],["E ","false"],["A ","false"]],"correct":1,"scaffold":"none","question":"start+duration","scenario":"axis","graph":"triangular","condition":4,"session":"hotel","experiment":"experiment","subject":"6FBAA","internal_node_id":"0.0-9.0-0.0","time_elapsed":1081965,"trial_index":35,"trial_type":"html","url":"../views/src/external/stimulus.html","rt":21781},{"condition":4,"session":"hotel","experiment":"experiment","subject":"6FBAA","internal_node_id":"0.0-10.0","time_elapsed":1106612,"trial_index":36,"trial_type":"single-stim","block":"scenario-draw","key_press":13,"stimulus":"img/jones.png","rt":23642},{"condition":4,"session":"hotel","experiment":"experiment","subject":"6FBAA","internal_node_id":"0.0-11.0","time_elapsed":1420649,"trial_index":37,"trial_type":"html","block":"instructions_drawing","url":"../views/src/external/instructions_draw.html","rt":312908},{"block":"drawingTest","clicked":[["answer","clicked"]],"answer":["G3"],"correct":0,"scaffold":"none","question":"duration","scenario":"jones","graph":"none","condition":4,"session":"hotel","experiment":"experiment","subject":"6FBAA","internal_node_id":"0.0-12.0","time_elapsed":1455404,"trial_index":38,"trial_type":"html","url":"../views/src/external/stimulus.html","rt":33411},{"block":"drawingTest","clicked":[["answer","clicked"]],"answer":["Chris","3-4pm"],"correct":1,"scaffold":"none","question":"overlap","scenario":"jones","graph":"none","condition":4,"session":"hotel","experiment":"experiment","subject":"6FBAA","internal_node_id":"0.0-13.0","time_elapsed":1523862,"trial_index":39,"trial_type":"html","url":"../views/src/external/stimulus.html","rt":67211},{"condition":4,"session":"hotel","experiment":"experiment","subject":"6FBAA","internal_node_id":"0.0-14.0","time_elapsed":1533153,"trial_index":40,"trial_type":"survey-text","block":"demo-1","responses":"{\"Q0\":\"23\",\"Q1\":\"Iran\"}","rt":8279},{"condition":4,"session":"hotel","experiment":"experiment","subject":"6FBAA","internal_node_id":"0.0-15.0","time_elapsed":1555871,"trial_index":41,"trial_type":"survey-multi-choice","block":"demo-2","responses":"{\"Q0\":\"Other\",\"Q1\":\"Third\",\"Q2\":\"Biomedical \u0026 Health Sciences\",\"Q3\":\"Female\",\"Q4\":\"the second one (triangular)\"}","rt":21701},{"condition":4,"session":"hotel","experiment":"experiment","subject":"6FBAA","internal_node_id":"0.0-16.0","time_elapsed":1560590,"trial_index":42,"trial_type":"html","block":"debrief","url":"../views/src/external/debrief.html","rt":3415}],"__v":0}
{"_id":{"$oid":"58c2f950039350000489263d"},"data":[{"condition":4,"session":"hotel","experiment":"reverse","subject":"OXMZM","internal_node_id":"0.0-0.0","time_elapsed":93059,"trial_index":0,"trial_type":"single-stim","block":"phone","key_press":13,"stimulus":"img/phone.png","rt":93051},{"condition":4,"session":"hotel","experiment":"reverse","subject":"OXMZM","internal_node_id":"0.0-1.0","time_elapsed":98001,"trial_index":1,"trial_type":"html","block":"consent","url":"../views/src/external/consent.html","rt":3539},{"condition":4,"session":"hotel","experiment":"reverse","subject":"OXMZM","internal_node_id":"0.0-2.0","time_elapsed":107679,"trial_index":2,"trial_type":"survey-text","block":"codes","responses":"{\"Q0\":\"HOTEL\",\"Q1\":\"4\"}","rt":8670},{"condition":4,"session":"hotel","experiment":"reverse","subject":"OXMZM","internal_node_id":"0.0-3.0","time_elapsed":119401,"trial_index":3,"trial_type":"html","block":"instructions_lab","url":"../views/src/external/instructions_lab.html","rt":10533},{"condition":4,"session":"hotel","experiment":"reverse","subject":"OXMZM","internal_node_id":"0.0-4.0","time_elapsed":131668,"trial_index":4,"trial_type":"single-stim","block":"scenario-two","key_press":13,"stimulus":"img/axis.png","rt":11265},{"block":"triangular_scaffolded","helps":0,"clicked":[["answer","clicked"],["M ","false"],["B ","false"],["J ","false"],["N ","false"],["D ","false"],["O ","false"],["K ","false"],["C ","false"],["F ","false"],["I ","false"],["H ","false"],["G ","false"],["L ","false"],["E ","false"],["A ","false"]],"answer":["H","O"],"correct":1,"scaffold":"show-interactive","question":"start","scenario":"axis","graph":"triangular","condition":4,"session":"hotel","experiment":"reverse","subject":"OXMZM","internal_node_id":"0.0-5.0-0.0","time_elapsed":164304,"trial_index":5,"trial_type":"html","url":"../views/src/external/stimulus.html","rt":31192},{"block":"triangular_scaffolded","helps":0,"clicked":[["answer","clicked"],["M ","false"],["B ","false"],["J ","false"],["N ","false"],["D ","false"],["O ","false"],["K ","false"],["C ","false"],["F ","false"],["I ","false"],["H ","false"],["G ","false"],["L ","false"],["E ","false"],["A ","false"]],"answer":["4"],"correct":1,"scaffold":"show-interactive","question":"end","scenario":"axis","graph":"triangular","condition":4,"session":"hotel","experiment":"reverse","subject":"OXMZM","internal_node_id":"0.0-5.0-1.0","time_elapsed":173750,"trial_index":6,"trial_type":"html","url":"../views/src/external/stimulus.html","rt":8181},{"block":"triangular_scaffolded","helps":0,"clicked":[["answer","clicked"],["M ","false"],["B ","false"],["J ","false"],["N ","false"],["D ","false"],["O ","false"],["K ","false"],["C ","false"],["F ","false"],["I ","false"],["H ","false"],["G ","false"],["L ","false"],["E ","false"],["A ","false"]],"answer":["A","C","E","F","G","H","I","K","L"],"correct":1,"scaffold":"show-interactive","question":"duration","scenario":"axis","graph":"triangular","condition":4,"session":"hotel","experiment":"reverse","subject":"OXMZM","internal_node_id":"0.0-5.0-2.0","time_elapsed":212581,"trial_index":7,"trial_type":"html","url":"../views/src/external/stimulus.html","rt":37586},{"block":"triangular_scaffolded","helps":0,"clicked":[["answer","clicked"],["M ","false"],["B ","false"],["J ","false"],["N ","false"],["D ","false"],["O ","false"],["K ","false"],["C ","false"],["F ","false"],["I ","false"],["H ","false"],["G ","false"],["L ","false"],["E ","false"],["A ","false"]],"answer":["8"],"correct":1,"scaffold":"show-interactive","question":"midpoint","scenario":"axis","graph":"triangular","condition":4,"session":"hotel","experiment":"reverse","subject":"OXMZM","internal_node_id":"0.0-5.0-3.0","time_elapsed":252388,"trial_index":8,"trial_type":"html","url":"../views/src/external/stimulus.html","rt":38553},{"block":"triangular_scaffolded","helps":0,"clicked":[["answer","clicked"],["M ","false"],["B ","false"],["J ","false"],["N ","false"],["D ","false"],["O ","false"],["K ","false"],["C ","false"],["F ","false"],["I ","false"],["H ","false"],["G ","false"],["L ","false"],["E ","false"],["A ","false"]],"answer":["1"],"correct":0,"scaffold":"show-interactive","question":"start+overlap","scenario":"axis","graph":"triangular","condition":4,"session":"hotel","experiment":"reverse","subject":"OXMZM","internal_node_id":"0.0-5.0-4.0","time_elapsed":282175,"trial_index":9,"trial_type":"html","url":"../views/src/external/stimulus.html","rt":28531},{"block":"triangular_testing","helps":0,"answer":["G"],"clicked":[["answer","clicked"],["M ","false"],["B ","false"],["J ","false"],["N ","false"],["D ","false"],["O ","false"],["K ","false"],["C ","false"],["F ","false"],["I ","false"],["H ","false"],["G ","false"],["L ","false"],["E ","false"],["A ","false"]],"correct":1,"scaffold":"none","question":"starts+finishes","scenario":"axis","graph":"triangular","condition":4,"session":"hotel","experiment":"reverse","subject":"OXMZM","internal_node_id":"0.0-6.0-9.0","time_elapsed":298266,"trial_index":10,"trial_type":"html","url":"../views/src/external/stimulus.html","rt":14836},{"block":"triangular_testing","helps":0,"answer":["B"],"clicked":[["answer","clicked"],["M ","false"],["B ","false"],["J ","false"],["N ","false"],["D ","false"],["O ","false"],["K ","false"],["C ","false"],["F ","false"],["I ","false"],["H ","false"],["G ","false"],["L ","false"],["E ","false"],["A ","false"]],"correct":0,"scaffold":"none","question":"overlap+overlap","scenario":"axis","graph":"triangular","condition":4,"session":"hotel","experiment":"reverse","subject":"OXMZM","internal_node_id":"0.0-6.0-2.0","time_elapsed":334183,"trial_index":11,"trial_type":"html","url":"../views/src/external/stimulus.html","rt":34659},{"block":"triangular_testing","helps":0,"answer":["F","M","O"],"clicked":[["answer","clicked"],["M ","false"],["B ","false"],["J ","false"],["N ","false"],["D ","false"],["O ","false"],["K ","false"],["C ","false"],["F ","false"],["I ","false"],["H ","false"],["G ","false"],["L ","false"],["E ","false"],["A ","false"]],"correct":1,"scaffold":"none","question":"during","scenario":"axis","graph":"triangular","condition":4,"session":"hotel","experiment":"reverse","subject":"OXMZM","internal_node_id":"0.0-6.0-7.0","time_elapsed":352391,"trial_index":12,"trial_type":"html","url":"../views/src/external/stimulus.html","rt":16945},{"block":"triangular_testing","helps":0,"answer":["A","E","F","G","H","L","O"],"clicked":[["answer","clicked"],["M ","false"],["B ","false"],["J ","false"],["N ","false"],["D ","false"],["O ","false"],["K ","false"],["C ","false"],["F ","false"],["I ","false"],["H ","false"],["G ","false"],["L ","false"],["E ","false"],["A ","false"]],"correct":0,"scaffold":"none","question":"before+overlap","scenario":"axis","graph":"triangular","condition":4,"session":"hotel","experiment":"reverse","subject":"OXMZM","internal_node_id":"0.0-6.0-1.0","time_elapsed":404312,"trial_index":13,"trial_type":"html","url":"../views/src/external/stimulus.html","rt":50656},{"block":"triangular_testing","helps":0,"answer":["A","G"],"clicked":[["answer","clicked"],["M ","false"],["B ","false"],["J ","false"],["N ","false"],["D ","false"],["O ","false"],["K ","false"],["C ","false"],["F ","false"],["I ","false"],["H ","false"],["G ","false"],["L ","false"],["E ","false"],["A ","false"]],"correct":0,"scaffold":"none","question":"during+overlap","scenario":"axis","graph":"triangular","condition":4,"session":"hotel","experiment":"reverse","subject":"OXMZM","internal_node_id":"0.0-6.0-3.0","time_elapsed":513672,"trial_index":14,"trial_type":"html","url":"../views/src/external/stimulus.html","rt":108106},{"block":"triangular_testing","helps":0,"answer":["G","O"],"clicked":[["answer","clicked"],["M ","false"],["B ","false"],["J ","false"],["N ","false"],["D ","false"],["O ","false"],["K ","false"],["C ","false"],["F ","false"],["I ","false"],["H ","false"],["G ","false"],["L ","false"],["E ","false"],["A ","false"]],"correct":1,"scaffold":"none","question":"finishes","scenario":"axis","graph":"triangular","condition":4,"session":"hotel","experiment":"reverse","subject":"OXMZM","internal_node_id":"0.0-6.0-6.0","time_elapsed":524170,"trial_index":15,"trial_type":"html","url":"../views/src/external/stimulus.html","rt":9051},{"block":"triangular_testing","helps":0,"answer":["D","M","N","O"],"clicked":[["answer","clicked"],["M ","false"],["B ","false"],["J ","false"],["N ","false"],["D ","false"],["O ","false"],["K ","false"],["C ","false"],["F ","false"],["I ","false"],["H ","false"],["G ","false"],["L ","false"],["E ","false"],["A ","false"]],"correct":1,"scaffold":"none","question":"contain+duration","scenario":"axis","graph":"triangular","condition":4,"session":"hotel","experiment":"reverse","subject":"OXMZM","internal_node_id":"0.0-6.0-4.0","time_elapsed":554651,"trial_index":16,"trial_type":"html","url":"../views/src/external/stimulus.html","rt":29226},{"block":"triangular_testing","helps":0,"answer":["4"],"clicked":[["answer","clicked"],["M ","false"],["B ","false"],["J ","false"],["N ","false"],["D ","false"],["O ","false"],["K ","false"],["C ","false"],["F ","false"],["I ","false"],["H ","false"],["G ","false"],["L ","false"],["E ","false"],["A ","false"]],"correct":0,"scaffold":"none","question":"start+duration","scenario":"axis","graph":"triangular","condition":4,"session":"hotel","experiment":"reverse","subject":"OXMZM","internal_node_id":"0.0-6.0-0.0","time_elapsed":576901,"trial_index":17,"trial_type":"html","url":"../views/src/external/stimulus.html","rt":20967},{"block":"triangular_testing","helps":0,"answer":["6"],"clicked":[["answer","clicked"],["M ","false"],["B ","false"],["J ","false"],["N ","false"],["D ","false"],["O ","false"],["K ","false"],["C ","false"],["F ","false"],["I ","false"],["H ","false"],["G ","false"],["L ","false"],["E ","false"],["A ","false"]],"correct":1,"scaffold":"none","question":"starts","scenario":"axis","graph":"triangular","condition":4,"session":"hotel","experiment":"reverse","subject":"OXMZM","internal_node_id":"0.0-6.0-5.0","time_elapsed":597070,"trial_index":18,"trial_type":"html","url":"../views/src/external/stimulus.html","rt":18914},{"block":"triangular_testing","helps":0,"answer":["G"],"clicked":[["answer","clicked"],["M ","false"],["B ","false"],["J ","false"],["N ","false"],["D ","false"],["O ","false"],["K ","false"],["C ","false"],["F ","false"],["I ","false"],["H ","false"],["G ","false"],["L ","false"],["E ","false"],["A ","false"]],"correct":1,"scaffold":"none","question":"meets","scenario":"axis","graph":"triangular","condition":4,"session":"hotel","experiment":"reverse","subject":"OXMZM","internal_node_id":"0.0-6.0-8.0","time_elapsed":618186,"trial_index":19,"trial_type":"html","url":"../views/src/external/stimulus.html","rt":19864},{"condition":4,"session":"hotel","experiment":"reverse","subject":"OXMZM","internal_node_id":"0.0-7.0","time_elapsed":630384,"trial_index":20,"trial_type":"single-stim","block":"scenario-one","key_press":13,"stimulus":"img/longmire.png","rt":11193},{"block":"linear_scaffolded","helps":0,"clicked":[["answer","clicked"],["A ","false"],["M ","false"],["D ","false"],["N ","false"],["B ","false"],["F ","false"],["H ","false"],["G ","false"],["O ","false"],["C ","false"],["J ","false"],["I ","false"],["E ","false"],["L ","false"],["K ","false"]],"answer":["C","D","L"],"correct":1,"scaffold":"show-interactive","question":"start","scenario":"longmire","graph":"linear","condition":4,"session":"hotel","experiment":"reverse","subject":"OXMZM","internal_node_id":"0.0-8.0-0.0","time_elapsed":648519,"trial_index":21,"trial_type":"html","url":"../views/src/external/stimulus.html","rt":16888},{"block":"linear_scaffolded","helps":0,"clicked":[["answer","clicked"],["A ","false"],["M ","false"],["D ","false"],["N ","false"],["B ","false"],["F ","false"],["H ","false"],["G ","false"],["O ","false"],["C ","false"],["J ","false"],["I ","false"],["E ","false"],["L ","false"],["K ","false"]],"answer":["H","J","K","L","M","N","O"],"correct":1,"scaffold":"show-interactive","question":"end","scenario":"longmire","graph":"linear","condition":4,"session":"hotel","experiment":"reverse","subject":"OXMZM","internal_node_id":"0.0-8.0-1.0","time_elapsed":687240,"trial_index":22,"trial_type":"html","url":"../views/src/external/stimulus.html","rt":37400},{"block":"linear_scaffolded","helps":0,"clicked":[["answer","clicked"],["A ","false"],["M ","false"],["D ","false"],["N ","false"],["B ","false"],["F ","false"],["H ","false"],["G ","false"],["O ","false"],["C ","false"],["J ","false"],["I ","false"],["E ","false"],["L ","false"],["K ","false"]],"answer":["G","O"],"correct":1,"scaffold":"show-interactive","question":"duration","scenario":"longmire","graph":"linear","condition":4,"session":"hotel","experiment":"reverse","subject":"OXMZM","internal_node_id":"0.0-8.0-2.0","time_elapsed":711783,"trial_index":23,"trial_type":"html","url":"../views/src/external/stimulus.html","rt":23292},{"block":"linear_scaffolded","helps":0,"clicked":[["answer","clicked"],["A ","false"],["M ","false"],["D ","false"],["N ","false"],["B ","false"],["F ","false"],["H ","false"],["G ","false"],["O ","false"],["C ","false"],["J ","false"],["I ","false"],["E ","false"],["L ","false"],["K ","false"]],"answer":["1"],"correct":1,"scaffold":"show-interactive","question":"midpoint","scenario":"longmire","graph":"linear","condition":4,"session":"hotel","experiment":"reverse","subject":"OXMZM","internal_node_id":"0.0-8.0-3.0","time_elapsed":723572,"trial_index":24,"trial_type":"html","url":"../views/src/external/stimulus.html","rt":10535},{"block":"linear_scaffolded","helps":0,"clicked":[["answer","clicked"],["A ","false"],["M ","false"],["D ","false"],["N ","false"],["B ","false"],["F ","false"],["H ","false"],["G ","false"],["O ","false"],["C ","false"],["J ","false"],["I ","false"],["E ","false"],["L ","false"],["K ","false"]],"answer":["A"],"correct":1,"scaffold":"show-interactive","question":"start+overlap","scenario":"longmire","graph":"linear","condition":4,"session":"hotel","experiment":"reverse","subject":"OXMZM","internal_node_id":"0.0-8.0-4.0","time_elapsed":739335,"trial_index":25,"trial_type":"html","url":"../views/src/external/stimulus.html","rt":14507},{"block":"linear_testing","helps":0,"clicked":[["answer","clicked"],["A ","false"],["M ","false"],["D ","false"],["N ","false"],["B ","false"],["F ","false"],["H ","false"],["G ","false"],["O ","false"],["C ","false"],["J ","false"],["I ","false"],["E ","false"],["L ","false"],["K ","false"]],"answer":["4","5"],"correct":1,"scaffold":"none","question":"finishes","scenario":"longmire","graph":"linear","condition":4,"session":"hotel","experiment":"reverse","subject":"OXMZM","internal_node_id":"0.0-9.0-6.0","time_elapsed":774979,"trial_index":26,"trial_type":"html","url":"../views/src/external/stimulus.html","rt":34387},{"block":"linear_testing","helps":0,"clicked":[["answer","clicked"],["A ","false"],["M ","false"],["D ","false"],["N ","false"],["B ","false"],["F ","false"],["H ","false"],["G ","false"],["O ","false"],["C ","false"],["J ","false"],["I ","false"],["E ","false"],["L ","false"],["K ","false"]],"answer":["O"],"correct":1,"scaffold":"none","question":"meets","scenario":"longmire","graph":"linear","condition":4,"session":"hotel","experiment":"reverse","subject":"OXMZM","internal_node_id":"0.0-9.0-8.0","time_elapsed":811210,"trial_index":27,"trial_type":"html","url":"../views/src/external/stimulus.html","rt":34979},{"block":"linear_testing","helps":0,"clicked":[["answer","clicked"],["A ","false"],["M ","false"],["D ","false"],["N ","false"],["B ","false"],["F ","false"],["H ","false"],["G ","false"],["O ","false"],["C ","false"],["J ","false"],["I ","false"],["E ","false"],["L ","false"],["K ","false"]],"answer":["A","M","N"],"correct":1,"scaffold":"none","question":"overlap+overlap","scenario":"longmire","graph":"linear","condition":4,"session":"hotel","experiment":"reverse","subject":"OXMZM","internal_node_id":"0.0-9.0-2.0","time_elapsed":838886,"trial_index":28,"trial_type":"html","url":"../views/src/external/stimulus.html","rt":26425},{"block":"linear_testing","helps":0,"clicked":[["answer","clicked"],["A ","false"],["M ","false"],["D ","false"],["N ","false"],["B ","false"],["F ","false"],["H ","false"],["G ","false"],["O ","false"],["C ","false"],["J ","false"],["I ","false"],["E ","false"],["L ","false"],["K ","false"]],"answer":["A","B","D","F"],"correct":0,"scaffold":"none","question":"before+overlap","scenario":"longmire","graph":"linear","condition":4,"session":"hotel","experiment":"reverse","subject":"OXMZM","internal_node_id":"0.0-9.0-1.0","time_elapsed":863153,"trial_index":29,"trial_type":"html","url":"../views/src/external/stimulus.html","rt":22864},{"block":"linear_testing","helps":0,"clicked":[["answer","clicked"],["A ","false"],["M ","false"],["D ","false"],["N ","false"],["B ","false"],["F ","false"],["H ","false"],["G ","false"],["O ","false"],["C ","false"],["J ","false"],["I ","false"],["E ","true"],["L ","false"],["K ","false"]],"answer":["B","C","D","F","G","H","I","J","L","O"],"correct":0,"scaffold":"none","question":"during","scenario":"longmire","graph":"linear","condition":4,"session":"hotel","experiment":"reverse","subject":"OXMZM","internal_node_id":"0.0-9.0-7.0","time_elapsed":946324,"trial_index":30,"trial_type":"html","url":"../views/src/external/stimulus.html","rt":81920},{"block":"linear_testing","helps":0,"clicked":[["answer","clicked"],["A ","false"],["M ","false"],["D ","false"],["N ","false"],["B ","false"],["F ","false"],["H ","false"],["G ","false"],["O ","false"],["C ","false"],["J ","false"],["I ","false"],["E ","false"],["L ","false"],["K ","false"]],"answer":["A","B","D","F"],"correct":1,"scaffold":"none","question":"start+duration","scenario":"longmire","graph":"linear","condition":4,"session":"hotel","experiment":"reverse","subject":"OXMZM","internal_node_id":"0.0-9.0-0.0","time_elapsed":982523,"trial_index":31,"trial_type":"html","url":"../views/src/external/stimulus.html","rt":34784},{"block":"linear_testing","helps":0,"clicked":[["answer","clicked"],["A ","false"],["M ","false"],["D ","false"],["N ","false"],["B ","false"],["F ","false"],["H ","false"],["G ","false"],["O ","false"],["C ","false"],["J ","false"],["I ","false"],["E ","false"],["L ","false"],["K ","false"]],"answer":["C"],"correct":1,"scaffold":"none","question":"starts+finishes","scenario":"longmire","graph":"linear","condition":4,"session":"hotel","experiment":"reverse","subject":"OXMZM","internal_node_id":"0.0-9.0-9.0","time_elapsed":995832,"trial_index":32,"trial_type":"html","url":"../views/src/external/stimulus.html","rt":12022},{"block":"linear_testing","helps":0,"clicked":[["answer","clicked"],["A ","false"],["M ","false"],["D ","false"],["N ","false"],["B ","false"],["F ","false"],["H ","false"],["G ","false"],["O ","false"],["C ","false"],["J ","false"],["I ","false"],["E ","false"],["L ","false"],["K ","false"]],"answer":["6","8"],"correct":1,"scaffold":"none","question":"starts","scenario":"longmire","graph":"linear","condition":4,"session":"hotel","experiment":"reverse","subject":"OXMZM","internal_node_id":"0.0-9.0-5.0","time_elapsed":1017098,"trial_index":33,"trial_type":"html","url":"../views/src/external/stimulus.html","rt":20012},{"block":"linear_testing","helps":0,"clicked":[["answer","clicked"],["A ","false"],["M ","false"],["D ","false"],["N ","false"],["B ","false"],["F ","false"],["H ","false"],["G ","false"],["O ","false"],["C ","false"],["J ","false"],["I ","false"],["E ","false"],["L ","false"],["K ","false"]],"answer":["G","O"],"correct":1,"scaffold":"none","question":"contain+duration","scenario":"longmire","graph":"linear","condition":4,"session":"hotel","experiment":"reverse","subject":"OXMZM","internal_node_id":"0.0-9.0-4.0","time_elapsed":1033064,"trial_index":34,"trial_type":"html","url":"../views/src/external/stimulus.html","rt":14707},{"block":"linear_testing","helps":0,"clicked":[["answer","clicked"],["A ","false"],["M ","false"],["D ","true"],["N ","false"],["B ","false"],["F ","false"],["H ","true"],["G ","false"],["O ","false"],["C ","false"],["J ","false"],["I ","false"],["E ","false"],["L ","false"],["K ","false"]],"answer":["K","L"],"correct":1,"scaffold":"none","question":"during+overlap","scenario":"longmire","graph":"linear","condition":4,"session":"hotel","experiment":"reverse","subject":"OXMZM","internal_node_id":"0.0-9.0-3.0","time_elapsed":1064057,"trial_index":35,"trial_type":"html","url":"../views/src/external/stimulus.html","rt":29743},{"condition":4,"session":"hotel","experiment":"reverse","subject":"OXMZM","internal_node_id":"0.0-10.0","time_elapsed":1077221,"trial_index":36,"trial_type":"single-stim","block":"scenario-draw","key_press":13,"stimulus":"img/jones.png","rt":12158},{"condition":4,"session":"hotel","experiment":"reverse","subject":"OXMZM","internal_node_id":"0.0-11.0","time_elapsed":1463478,"trial_index":37,"trial_type":"html","block":"instructions_drawing","url":"../views/src/external/instructions_draw.html","rt":385079},{"block":"drawingTest","clicked":[["answer","clicked"]],"answer":["C1"],"correct":1,"scaffold":"none","question":"duration","scenario":"jones","graph":"none","condition":4,"session":"hotel","experiment":"reverse","subject":"OXMZM","internal_node_id":"0.0-12.0","time_elapsed":1520104,"trial_index":38,"trial_type":"html","url":"../views/src/external/stimulus.html","rt":55166},{"block":"drawingTest","clicked":[["answer","clicked"]],"answer":["Chris","3-4pm"],"correct":1,"scaffold":"none","question":"overlap","scenario":"jones","graph":"none","condition":4,"session":"hotel","experiment":"reverse","subject":"OXMZM","internal_node_id":"0.0-13.0","time_elapsed":1566516,"trial_index":39,"trial_type":"html","url":"../views/src/external/stimulus.html","rt":45164},{"condition":4,"session":"hotel","experiment":"reverse","subject":"OXMZM","internal_node_id":"0.0-14.0","time_elapsed":1579077,"trial_index":40,"trial_type":"survey-text","block":"demo-1","responses":"{\"Q0\":\"18\",\"Q1\":\"United States of America\"}","rt":11556},{"condition":4,"session":"hotel","experiment":"reverse","subject":"OXMZM","internal_node_id":"0.0-15.0","time_elapsed":1603235,"trial_index":41,"trial_type":"survey-multi-choice","block":"demo-2","responses":"{\"Q0\":\"English\",\"Q1\":\"First\",\"Q2\":\"Natural Sciences\",\"Q3\":\"Female\",\"Q4\":\"the first one (linear\"}","rt":23137},{"condition":4,"session":"hotel","experiment":"reverse","subject":"OXMZM","internal_node_id":"0.0-16.0","time_elapsed":1610469,"trial_index":42,"trial_type":"html","block":"debrief","url":"../views/src/external/debrief.html","rt":5986}],"__v":0}
{"_id":{"$oid":"58c2f9eb039350000489263e"},"data":[{"condition":2,"session":"hotel","experiment":"reverse","subject":"WJHUD","internal_node_id":"0.0-0.0","time_elapsed":78878,"trial_index":0,"trial_type":"single-stim","block":"phone","key_press":13,"stimulus":"img/phone.png","rt":78870},{"condition":2,"session":"hotel","experiment":"reverse","subject":"WJHUD","internal_node_id":"0.0-1.0","time_elapsed":83549,"trial_index":1,"trial_type":"html","block":"consent","url":"../views/src/external/consent.html","rt":3419},{"condition":2,"session":"hotel","experiment":"reverse","subject":"WJHUD","internal_node_id":"0.0-2.0","time_elapsed":94104,"trial_index":2,"trial_type":"survey-text","block":"codes","responses":"{\"Q0\":\"HOTEL\",\"Q1\":\"2\"}","rt":9544},{"condition":2,"session":"hotel","experiment":"reverse","subject":"WJHUD","internal_node_id":"0.0-3.0","time_elapsed":103396,"trial_index":3,"trial_type":"html","block":"instructions_lab","url":"../views/src/external/instructions_lab.html","rt":8194},{"condition":2,"session":"hotel","experiment":"reverse","subject":"WJHUD","internal_node_id":"0.0-4.0","time_elapsed":113537,"trial_index":4,"trial_type":"single-stim","block":"scenario-two","key_press":13,"stimulus":"img/longmire.png","rt":9138},{"block":"triangular_scaffolded","helps":0,"clicked":[["answer","clicked"],["A ","false"],["M ","false"],["D ","false"],["N ","false"],["B ","false"],["F ","false"],["H ","false"],["G ","false"],["O ","false"],["C ","false"],["J ","false"],["I ","false"],["E ","false"],["L ","false"],["K ","false"]],"answer":["B","D","I"],"correct":0,"scaffold":"describe-how","question":"start","scenario":"longmire","graph":"triangular","condition":2,"session":"hotel","experiment":"reverse","subject":"WJHUD","internal_node_id":"0.0-5.0-0.0","time_elapsed":198762,"trial_index":5,"trial_type":"html","url":"../views/src/external/stimulus.html","rt":83894},{"block":"triangular_scaffolded","helps":0,"clicked":[["answer","clicked"],["A ","false"],["M ","false"],["D ","false"],["N ","false"],["B ","false"],["F ","false"],["H ","false"],["G ","false"],["O ","false"],["C ","false"],["J ","false"],["I ","false"],["E ","false"],["L ","false"],["K ","false"]],"answer":["M","N"],"correct":0,"scaffold":"describe-how","question":"end","scenario":"longmire","graph":"triangular","condition":2,"session":"hotel","experiment":"reverse","subject":"WJHUD","internal_node_id":"0.0-5.0-1.0","time_elapsed":214416,"trial_index":6,"trial_type":"html","url":"../views/src/external/stimulus.html","rt":14224},{"block":"triangular_scaffolded","helps":0,"clicked":[["answer","clicked"],["A ","false"],["M ","false"],["D ","false"],["N ","false"],["B ","false"],["F ","false"],["H ","false"],["G ","false"],["O ","false"],["C ","false"],["J ","false"],["I ","false"],["E ","false"],["L ","false"],["K ","false"]],"answer":["G","O"],"correct":1,"scaffold":"describe-how","question":"duration","scenario":"longmire","graph":"triangular","condition":2,"session":"hotel","experiment":"reverse","subject":"WJHUD","internal_node_id":"0.0-5.0-2.0","time_elapsed":263094,"trial_index":7,"trial_type":"html","url":"../views/src/external/stimulus.html","rt":47423},{"block":"triangular_scaffolded","helps":0,"clicked":[["answer","clicked"],["A ","false"],["M ","false"],["D ","false"],["N ","false"],["B ","false"],["F ","false"],["H ","false"],["G ","false"],["O ","false"],["C ","false"],["J ","false"],["I ","false"],["E ","false"],["L ","false"],["K ","false"]],"answer":["1"],"correct":1,"scaffold":"describe-how","question":"midpoint","scenario":"longmire","graph":"triangular","condition":2,"session":"hotel","experiment":"reverse","subject":"WJHUD","internal_node_id":"0.0-5.0-3.0","time_elapsed":279541,"trial_index":8,"trial_type":"html","url":"../views/src/external/stimulus.html","rt":15194},{"block":"triangular_scaffolded","helps":0,"clicked":[["answer","clicked"],["A ","false"],["M ","false"],["D ","false"],["N ","false"],["B ","false"],["F ","false"],["H ","false"],["G ","false"],["O ","false"],["C ","false"],["J ","false"],["I ","false"],["E ","false"],["L ","false"],["K ","false"]],"answer":["I"],"correct":0,"scaffold":"describe-how","question":"start+overlap","scenario":"longmire","graph":"triangular","condition":2,"session":"hotel","experiment":"reverse","subject":"WJHUD","internal_node_id":"0.0-5.0-4.0","time_elapsed":305053,"trial_index":9,"trial_type":"html","url":"../views/src/external/stimulus.html","rt":24256},{"block":"triangular_testing","helps":0,"answer":["A","B","C","D","F","I"],"clicked":[["answer","clicked"],["A ","false"],["M ","false"],["D ","false"],["N ","false"],["B ","false"],["F ","false"],["H ","false"],["G ","false"],["O ","false"],["C ","false"],["J ","false"],["I ","false"],["E ","false"],["L ","false"],["K ","false"]],"correct":0,"scaffold":"none","question":"during","scenario":"longmire","graph":"triangular","condition":2,"session":"hotel","experiment":"reverse","subject":"WJHUD","internal_node_id":"0.0-6.0-7.0","time_elapsed":343852,"trial_index":10,"trial_type":"html","url":"../views/src/external/stimulus.html","rt":37542},{"block":"triangular_testing","helps":0,"answer":["A","D"],"clicked":[["answer","clicked"],["A ","false"],["M ","false"],["D ","false"],["N ","false"],["B ","false"],["F ","false"],["H ","false"],["G ","false"],["O ","false"],["C ","false"],["J ","false"],["I ","false"],["E ","false"],["L ","false"],["K ","false"]],"correct":0,"scaffold":"none","question":"start+duration","scenario":"longmire","graph":"triangular","condition":2,"session":"hotel","experiment":"reverse","subject":"WJHUD","internal_node_id":"0.0-6.0-0.0","time_elapsed":357345,"trial_index":11,"trial_type":"html","url":"../views/src/external/stimulus.html","rt":12157},{"block":"triangular_testing","helps":0,"answer":["B","F"],"clicked":[["answer","clicked"],["A ","false"],["M ","false"],["D ","false"],["N ","false"],["B ","false"],["F ","false"],["H ","false"],["G ","false"],["O ","false"],["C ","false"],["J ","false"],["I ","false"],["E ","false"],["L ","false"],["K ","false"]],"correct":0,"scaffold":"none","question":"contain+duration","scenario":"longmire","graph":"triangular","condition":2,"session":"hotel","experiment":"reverse","subject":"WJHUD","internal_node_id":"0.0-6.0-4.0","time_elapsed":396075,"trial_index":12,"trial_type":"html","url":"../views/src/external/stimulus.html","rt":37478},{"block":"triangular_testing","helps":0,"answer":["G","J","L"],"clicked":[["answer","clicked"],["A ","false"],["M ","false"],["D ","false"],["N ","false"],["B ","false"],["F ","false"],["H ","false"],["G ","false"],["O ","false"],["C ","false"],["J ","false"],["I ","false"],["E ","false"],["L ","false"],["K ","false"]],"correct":0,"scaffold":"none","question":"overlap+overlap","scenario":"longmire","graph":"triangular","condition":2,"session":"hotel","experiment":"reverse","subject":"WJHUD","internal_node_id":"0.0-6.0-2.0","time_elapsed":433485,"trial_index":13,"trial_type":"html","url":"../views/src/external/stimulus.html","rt":36165},{"block":"triangular_testing","helps":0,"answer":["9"],"clicked":[["answer","clicked"],["A ","false"],["M ","false"],["D ","false"],["N ","false"],["B ","false"],["F ","false"],["H ","false"],["G ","false"],["O ","false"],["C ","false"],["J ","false"],["I ","false"],["E ","false"],["L ","false"],["K ","false"]],"correct":0,"scaffold":"none","question":"starts","scenario":"longmire","graph":"triangular","condition":2,"session":"hotel","experiment":"reverse","subject":"WJHUD","internal_node_id":"0.0-6.0-5.0","time_elapsed":496755,"trial_index":14,"trial_type":"html","url":"../views/src/external/stimulus.html","rt":62014},{"block":"triangular_testing","helps":0,"answer":["B"],"clicked":[["answer","clicked"],["A ","false"],["M ","false"],["D ","false"],["N ","false"],["B ","false"],["F ","false"],["H ","false"],["G ","false"],["O ","false"],["C ","false"],["J ","false"],["I ","false"],["E ","false"],["L ","false"],["K ","false"]],"correct":0,"scaffold":"none","question":"starts+finishes","scenario":"longmire","graph":"triangular","condition":2,"session":"hotel","experiment":"reverse","subject":"WJHUD","internal_node_id":"0.0-6.0-9.0","time_elapsed":518598,"trial_index":15,"trial_type":"html","url":"../views/src/external/stimulus.html","rt":20478},{"block":"triangular_testing","helps":0,"answer":["M"],"clicked":[["answer","clicked"],["A ","false"],["M ","false"],["D ","false"],["N ","false"],["B ","false"],["F ","false"],["H ","false"],["G ","false"],["O ","false"],["C ","false"],["J ","false"],["I ","false"],["E ","false"],["L ","false"],["K ","false"]],"correct":0,"scaffold":"none","question":"before+overlap","scenario":"longmire","graph":"triangular","condition":2,"session":"hotel","experiment":"reverse","subject":"WJHUD","internal_node_id":"0.0-6.0-1.0","time_elapsed":527779,"trial_index":16,"trial_type":"html","url":"../views/src/external/stimulus.html","rt":7901},{"block":"triangular_testing","helps":0,"answer":["C","F"],"clicked":[["answer","clicked"],["A ","false"],["M ","false"],["D ","false"],["N ","false"],["B ","false"],["F ","false"],["H ","false"],["G ","false"],["O ","false"],["C ","false"],["J ","false"],["I ","false"],["E ","false"],["L ","false"],["K ","false"]],"correct":0,"scaffold":"none","question":"during+overlap","scenario":"longmire","graph":"triangular","condition":2,"session":"hotel","experiment":"reverse","subject":"WJHUD","internal_node_id":"0.0-6.0-3.0","time_elapsed":548944,"trial_index":17,"trial_type":"html","url":"../views/src/external/stimulus.html","rt":19908},{"block":"triangular_testing","helps":0,"answer":["3"],"clicked":[["answer","clicked"],["A ","false"],["M ","false"],["D ","false"],["N ","false"],["B ","false"],["F ","false"],["H ","false"],["G ","false"],["O ","false"],["C ","false"],["J ","false"],["I ","false"],["E ","false"],["L ","false"],["K ","false"]],"correct":0,"scaffold":"none","question":"finishes","scenario":"longmire","graph":"triangular","condition":2,"session":"hotel","experiment":"reverse","subject":"WJHUD","internal_node_id":"0.0-6.0-6.0","time_elapsed":560944,"trial_index":18,"trial_type":"html","url":"../views/src/external/stimulus.html","rt":10736},{"block":"triangular_testing","helps":0,"answer":["G","J"],"clicked":[["answer","clicked"],["A ","false"],["M ","false"],["D ","false"],["N ","false"],["B ","false"],["F ","false"],["H ","false"],["G ","false"],["O ","false"],["C ","false"],["J ","false"],["I ","false"],["E ","false"],["L ","false"],["K ","false"]],"correct":0,"scaffold":"none","question":"meets","scenario":"longmire","graph":"triangular","condition":2,"session":"hotel","experiment":"reverse","subject":"WJHUD","internal_node_id":"0.0-6.0-8.0","time_elapsed":590307,"trial_index":19,"trial_type":"html","url":"../views/src/external/stimulus.html","rt":28096},{"condition":2,"session":"hotel","experiment":"reverse","subject":"WJHUD","internal_node_id":"0.0-7.0","time_elapsed":595600,"trial_index":20,"trial_type":"single-stim","block":"scenario-one","key_press":13,"stimulus":"img/axis.png","rt":4286},{"block":"linear_scaffolded","helps":0,"clicked":[["answer","clicked"],["M ","false"],["B ","false"],["J ","false"],["N ","false"],["D ","false"],["O ","false"],["K ","false"],["C ","false"],["F ","false"],["I ","false"],["H ","false"],["G ","false"],["L ","false"],["E ","false"],["A ","false"]],"answer":["H","O"],"correct":1,"scaffold":"describe-how","question":"start","scenario":"axis","graph":"linear","condition":2,"session":"hotel","experiment":"reverse","subject":"WJHUD","internal_node_id":"0.0-8.0-0.0","time_elapsed":612859,"trial_index":21,"trial_type":"html","url":"../views/src/external/stimulus.html","rt":16011},{"block":"linear_scaffolded","helps":0,"clicked":[["answer","clicked"],["M ","false"],["B ","false"],["J ","false"],["N ","false"],["D ","false"],["O ","false"],["K ","false"],["C ","false"],["F ","false"],["I ","false"],["H ","false"],["G ","false"],["L ","false"],["E ","false"],["A ","false"]],"answer":["4"],"correct":1,"scaffold":"describe-how","question":"end","scenario":"axis","graph":"linear","condition":2,"session":"hotel","experiment":"reverse","subject":"WJHUD","internal_node_id":"0.0-8.0-1.0","time_elapsed":623018,"trial_index":22,"trial_type":"html","url":"../views/src/external/stimulus.html","rt":8903},{"block":"linear_scaffolded","helps":0,"clicked":[["answer","clicked"],["M ","false"],["B ","false"],["J ","false"],["N ","false"],["D ","false"],["O ","false"],["K ","false"],["C ","false"],["F ","false"],["I ","false"],["H ","false"],["G ","false"],["L ","false"],["E ","false"],["A ","false"]],"answer":["A","E","G","I","L"],"correct":0,"scaffold":"describe-how","question":"duration","scenario":"axis","graph":"linear","condition":2,"session":"hotel","experiment":"reverse","subject":"WJHUD","internal_node_id":"0.0-8.0-2.0","time_elapsed":653582,"trial_index":23,"trial_type":"html","url":"../views/src/external/stimulus.html","rt":29311},{"block":"linear_scaffolded","helps":0,"clicked":[["answer","clicked"],["M ","false"],["B ","false"],["J ","false"],["N ","false"],["D ","false"],["O ","false"],["K ","false"],["C ","false"],["F ","false"],["I ","false"],["H ","false"],["G ","false"],["L ","false"],["E ","false"],["A ","false"]],"answer":["1"],"correct":0,"scaffold":"describe-how","question":"midpoint","scenario":"axis","graph":"linear","condition":2,"session":"hotel","experiment":"reverse","subject":"WJHUD","internal_node_id":"0.0-8.0-3.0","time_elapsed":704352,"trial_index":24,"trial_type":"html","url":"../views/src/external/stimulus.html","rt":49512},{"block":"linear_scaffolded","helps":0,"clicked":[["answer","clicked"],["M ","false"],["B ","false"],["J ","false"],["N ","false"],["D ","false"],["O ","false"],["K ","false"],["C ","false"],["F ","false"],["I ","false"],["H ","false"],["G ","false"],["L ","false"],["E ","false"],["A ","false"]],"answer":["7"],"correct":1,"scaffold":"describe-how","question":"start+overlap","scenario":"axis","graph":"linear","condition":2,"session":"hotel","experiment":"reverse","subject":"WJHUD","internal_node_id":"0.0-8.0-4.0","time_elapsed":727012,"trial_index":25,"trial_type":"html","url":"../views/src/external/stimulus.html","rt":21407},{"block":"linear_testing","helps":0,"clicked":[["answer","clicked"],["M ","false"],["B ","false"],["J ","false"],["N ","false"],["D ","false"],["O ","false"],["K ","false"],["C ","false"],["F ","false"],["I ","false"],["H ","false"],["G ","false"],["L ","false"],["E ","false"],["A ","false"]],"answer":["3"],"correct":0,"scaffold":"none","question":"starts","scenario":"axis","graph":"linear","condition":2,"session":"hotel","experiment":"reverse","subject":"WJHUD","internal_node_id":"0.0-9.0-5.0","time_elapsed":744898,"trial_index":26,"trial_type":"html","url":"../views/src/external/stimulus.html","rt":16632},{"block":"linear_testing","helps":0,"clicked":[["answer","clicked"],["M ","false"],["B ","false"],["J ","false"],["N ","false"],["D ","false"],["O ","false"],["K ","false"],["C ","false"],["F ","false"],["I ","false"],["H ","false"],["G ","false"],["L ","false"],["E ","false"],["A ","false"]],"answer":["A","F","M","O"],"correct":0,"scaffold":"none","question":"during","scenario":"axis","graph":"linear","condition":2,"session":"hotel","experiment":"reverse","subject":"WJHUD","internal_node_id":"0.0-9.0-7.0","time_elapsed":771537,"trial_index":27,"trial_type":"html","url":"../views/src/external/stimulus.html","rt":25389},{"block":"linear_testing","helps":0,"clicked":[["answer","clicked"],["M ","false"],["B ","false"],["J ","false"],["N ","false"],["D ","false"],["O ","false"],["K ","false"],["C ","false"],["F ","false"],["I ","false"],["H ","false"],["G ","false"],["L ","false"],["E ","false"],["A ","false"]],"answer":["11"],"correct":0,"scaffold":"none","question":"start+duration","scenario":"axis","graph":"linear","condition":2,"session":"hotel","experiment":"reverse","subject":"WJHUD","internal_node_id":"0.0-9.0-0.0","time_elapsed":796802,"trial_index":28,"trial_type":"html","url":"../views/src/external/stimulus.html","rt":24011},{"block":"linear_testing","helps":0,"clicked":[["answer","clicked"],["M ","false"],["B ","false"],["J ","false"],["N ","false"],["D ","false"],["O ","false"],["K ","false"],["C ","false"],["F ","false"],["I ","false"],["H ","false"],["G ","false"],["L ","false"],["E ","false"],["A ","false"]],"answer":["D","M","N","O"],"correct":1,"scaffold":"none","question":"contain+duration","scenario":"axis","graph":"linear","condition":2,"session":"hotel","experiment":"reverse","subject":"WJHUD","internal_node_id":"0.0-9.0-4.0","time_elapsed":815663,"trial_index":29,"trial_type":"html","url":"../views/src/external/stimulus.html","rt":17604},{"block":"linear_testing","helps":0,"clicked":[["answer","clicked"],["M ","false"],["B ","false"],["J ","false"],["N ","false"],["D ","false"],["O ","false"],["K ","false"],["C ","false"],["F ","false"],["I ","false"],["H ","false"],["G ","false"],["L ","false"],["E ","false"],["A ","false"]],"answer":["M"],"correct":0,"scaffold":"none","question":"during+overlap","scenario":"axis","graph":"linear","condition":2,"session":"hotel","experiment":"reverse","subject":"WJHUD","internal_node_id":"0.0-9.0-3.0","time_elapsed":835165,"trial_index":30,"trial_type":"html","url":"../views/src/external/stimulus.html","rt":18252},{"block":"linear_testing","helps":0,"clicked":[["answer","clicked"],["M ","false"],["B ","false"],["J ","false"],["N ","false"],["D ","false"],["O ","false"],["K ","false"],["C ","false"],["F ","false"],["I ","false"],["H ","false"],["G ","false"],["L ","false"],["E ","false"],["A ","false"]],"answer":["G"],"correct":1,"scaffold":"none","question":"starts+finishes","scenario":"axis","graph":"linear","condition":2,"session":"hotel","experiment":"reverse","subject":"WJHUD","internal_node_id":"0.0-9.0-9.0","time_elapsed":845910,"trial_index":31,"trial_type":"html","url":"../views/src/external/stimulus.html","rt":9499},{"block":"linear_testing","helps":0,"clicked":[["answer","clicked"],["M ","false"],["B ","false"],["J ","false"],["N ","false"],["D ","false"],["O ","false"],["K ","false"],["C ","false"],["F ","false"],["I ","false"],["H ","false"],["G ","false"],["L ","false"],["E ","false"],["A ","false"]],"answer":["M","O"],"correct":0,"scaffold":"none","question":"before+overlap","scenario":"axis","graph":"linear","condition":2,"session":"hotel","experiment":"reverse","subject":"WJHUD","internal_node_id":"0.0-9.0-1.0","time_elapsed":859496,"trial_index":32,"trial_type":"html","url":"../views/src/external/stimulus.html","rt":12333},{"block":"linear_testing","helps":0,"clicked":[["answer","clicked"],["M ","false"],["B ","false"],["J ","false"],["N ","false"],["D ","false"],["O ","false"],["K ","false"],["C ","false"],["F ","false"],["I ","false"],["H ","false"],["G ","false"],["L ","false"],["E ","false"],["A ","false"]],"answer":["G","O"],"correct":1,"scaffold":"none","question":"finishes","scenario":"axis","graph":"linear","condition":2,"session":"hotel","experiment":"reverse","subject":"WJHUD","internal_node_id":"0.0-9.0-6.0","time_elapsed":878025,"trial_index":33,"trial_type":"html","url":"../views/src/external/stimulus.html","rt":17267},{"block":"linear_testing","helps":0,"clicked":[["answer","clicked"],["M ","false"],["B ","false"],["J ","false"],["N ","false"],["D ","false"],["O ","false"],["K ","false"],["C ","false"],["F ","false"],["I ","false"],["H ","false"],["G ","false"],["L ","false"],["E ","false"],["A ","false"]],"answer":["B","C","F","J"],"correct":0,"scaffold":"none","question":"overlap+overlap","scenario":"axis","graph":"linear","condition":2,"session":"hotel","experiment":"reverse","subject":"WJHUD","internal_node_id":"0.0-9.0-2.0","time_elapsed":895736,"trial_index":34,"trial_type":"html","url":"../views/src/external/stimulus.html","rt":16458},{"block":"linear_testing","helps":0,"clicked":[["answer","clicked"],["M ","false"],["B ","false"],["J ","false"],["N ","false"],["D ","false"],["O ","false"],["K ","false"],["C ","false"],["F ","false"],["I ","false"],["H ","false"],["G ","false"],["L ","false"],["E ","false"],["A ","false"]],"answer":["F","G"],"correct":0,"scaffold":"none","question":"meets","scenario":"axis","graph":"linear","condition":2,"session":"hotel","experiment":"reverse","subject":"WJHUD","internal_node_id":"0.0-9.0-8.0","time_elapsed":931171,"trial_index":35,"trial_type":"html","url":"../views/src/external/stimulus.html","rt":34185},{"condition":2,"session":"hotel","experiment":"reverse","subject":"WJHUD","internal_node_id":"0.0-10.0","time_elapsed":934504,"trial_index":36,"trial_type":"single-stim","block":"scenario-draw","key_press":13,"stimulus":"img/jones.png","rt":2328},{"condition":2,"session":"hotel","experiment":"reverse","subject":"WJHUD","internal_node_id":"0.0-11.0","time_elapsed":1650391,"trial_index":37,"trial_type":"html","block":"instructions_drawing","url":"../views/src/external/instructions_draw.html","rt":714793},{"block":"drawingTest","clicked":[["answer","clicked"]],"answer":["I4"],"correct":0,"scaffold":"none","question":"duration","scenario":"jones","graph":"none","condition":2,"session":"hotel","experiment":"reverse","subject":"WJHUD","internal_node_id":"0.0-12.0","time_elapsed":1679761,"trial_index":38,"trial_type":"html","url":"../views/src/external/stimulus.html","rt":28011},{"block":"drawingTest","clicked":[["answer","clicked"]],"answer":["Anne","Bahar","9-10am","1-3pm"],"correct":0,"scaffold":"none","question":"overlap","scenario":"jones","graph":"none","condition":2,"session":"hotel","experiment":"reverse","subject":"WJHUD","internal_node_id":"0.0-13.0","time_elapsed":1715324,"trial_index":39,"trial_type":"html","url":"../views/src/external/stimulus.html","rt":34314},{"condition":2,"session":"hotel","experiment":"reverse","subject":"WJHUD","internal_node_id":"0.0-14.0","time_elapsed":1723106,"trial_index":40,"trial_type":"survey-text","block":"demo-1","responses":"{\"Q0\":\"22\",\"Q1\":\"U.S.\"}","rt":6773},{"condition":2,"session":"hotel","experiment":"reverse","subject":"WJHUD","internal_node_id":"0.0-15.0","time_elapsed":1738554,"trial_index":41,"trial_type":"survey-multi-choice","block":"demo-2","responses":"{\"Q0\":\"English\",\"Q1\":\"Fourth\",\"Q2\":\"Social Sciences (incl. CogSci)\",\"Q3\":\"Female\",\"Q4\":\"the first one (linear\"}","rt":14425},{"condition":2,"session":"hotel","experiment":"reverse","subject":"WJHUD","internal_node_id":"0.0-16.0","time_elapsed":1751730,"trial_index":42,"trial_type":"html","block":"debrief","url":"../views/src/external/debrief.html","rt":12083}],"__v":0}
{"_id":{"$oid":"58c2fa2e039350000489263f"},"data":[{"condition":4,"session":"hotel","experiment":"reverse","subject":"4NF5A","internal_node_id":"0.0-0.0","time_elapsed":91164,"trial_index":0,"trial_type":"single-stim","block":"phone","key_press":13,"stimulus":"img/phone.png","rt":91154},{"condition":4,"session":"hotel","experiment":"reverse","subject":"4NF5A","internal_node_id":"0.0-1.0","time_elapsed":95993,"trial_index":1,"trial_type":"html","block":"consent","url":"../views/src/external/consent.html","rt":3642},{"condition":4,"session":"hotel","experiment":"reverse","subject":"4NF5A","internal_node_id":"0.0-2.0","time_elapsed":106514,"trial_index":2,"trial_type":"survey-text","block":"codes","responses":"{\"Q0\":\"HOTEL\",\"Q1\":\"4\"}","rt":9514},{"condition":4,"session":"hotel","experiment":"reverse","subject":"4NF5A","internal_node_id":"0.0-3.0","time_elapsed":133779,"trial_index":3,"trial_type":"html","block":"instructions_lab","url":"../views/src/external/instructions_lab.html","rt":26163},{"condition":4,"session":"hotel","experiment":"reverse","subject":"4NF5A","internal_node_id":"0.0-4.0","time_elapsed":149181,"trial_index":4,"trial_type":"single-stim","block":"scenario-two","key_press":13,"stimulus":"img/longmire.png","rt":14399},{"block":"triangular_scaffolded","helps":0,"clicked":[["answer","clicked"],["A ","false"],["M ","false"],["D ","false"],["N ","false"],["B ","false"],["F ","false"],["H ","false"],["G ","false"],["O ","false"],["C ","false"],["J ","false"],["I ","false"],["E ","false"],["L ","false"],["K ","false"]],"answer":["C","D","L"],"correct":1,"scaffold":"show-interactive","question":"start","scenario":"longmire","graph":"triangular","condition":4,"session":"hotel","experiment":"reverse","subject":"4NF5A","internal_node_id":"0.0-5.0-0.0","time_elapsed":204752,"trial_index":5,"trial_type":"html","url":"../views/src/external/stimulus.html","rt":54155},{"block":"triangular_scaffolded","helps":0,"clicked":[["answer","clicked"],["A ","false"],["M ","false"],["D ","false"],["N ","false"],["B ","false"],["F ","false"],["H ","false"],["G ","false"],["O ","false"],["C ","false"],["J ","false"],["I ","false"],["E ","false"],["L ","false"],["K ","false"]],"answer":["H","J","K","L","M","N","O"],"correct":1,"scaffold":"show-interactive","question":"end","scenario":"longmire","graph":"triangular","condition":4,"session":"hotel","experiment":"reverse","subject":"4NF5A","internal_node_id":"0.0-5.0-1.0","time_elapsed":244184,"trial_index":6,"trial_type":"html","url":"../views/src/external/stimulus.html","rt":38166},{"block":"triangular_scaffolded","helps":0,"clicked":[["answer","clicked"],["A ","false"],["M ","false"],["D ","false"],["N ","false"],["B ","false"],["F ","false"],["H ","false"],["G ","false"],["O ","false"],["C ","false"],["J ","false"],["I ","false"],["E ","false"],["L ","false"],["K ","false"]],"answer":["G","O"],"correct":1,"scaffold":"show-interactive","question":"duration","scenario":"longmire","graph":"triangular","condition":4,"session":"hotel","experiment":"reverse","subject":"4NF5A","internal_node_id":"0.0-5.0-2.0","time_elapsed":263488,"trial_index":7,"trial_type":"html","url":"../views/src/external/stimulus.html","rt":18050},{"block":"triangular_scaffolded","helps":0,"clicked":[["answer","clicked"],["A ","false"],["M ","false"],["D ","false"],["N ","false"],["B ","false"],["F ","false"],["H ","false"],["G ","false"],["O ","false"],["C ","false"],["J ","false"],["I ","false"],["E ","false"],["L ","false"],["K ","false"]],"answer":["1"],"correct":1,"scaffold":"show-interactive","question":"midpoint","scenario":"longmire","graph":"triangular","condition":4,"session":"hotel","experiment":"reverse","subject":"4NF5A","internal_node_id":"0.0-5.0-3.0","time_elapsed":279507,"trial_index":8,"trial_type":"html","url":"../views/src/external/stimulus.html","rt":14767},{"block":"triangular_scaffolded","helps":0,"clicked":[["answer","clicked"],["A ","false"],["M ","false"],["D ","false"],["N ","false"],["B ","false"],["F ","false"],["H ","false"],["G ","false"],["O ","false"],["C ","false"],["J ","false"],["I ","false"],["E ","false"],["L ","false"],["K ","false"]],"answer":["A"],"correct":1,"scaffold":"show-interactive","question":"start+overlap","scenario":"longmire","graph":"triangular","condition":4,"session":"hotel","experiment":"reverse","subject":"4NF5A","internal_node_id":"0.0-5.0-4.0","time_elapsed":297269,"trial_index":9,"trial_type":"html","url":"../views/src/external/stimulus.html","rt":16500},{"block":"triangular_testing","helps":0,"answer":["A","B","D","F"],"clicked":[["answer","clicked"],["A ","false"],["M ","false"],["D ","false"],["N ","false"],["B ","false"],["F ","false"],["H ","false"],["G ","false"],["O ","false"],["C ","false"],["J ","false"],["I ","false"],["E ","false"],["L ","false"],["K ","false"]],"correct":1,"scaffold":"none","question":"start+duration","scenario":"longmire","graph":"triangular","condition":4,"session":"hotel","experiment":"reverse","subject":"4NF5A","internal_node_id":"0.0-6.0-0.0","time_elapsed":345077,"trial_index":10,"trial_type":"html","url":"../views/src/external/stimulus.html","rt":46548},{"block":"triangular_testing","helps":0,"answer":["6","8"],"clicked":[["answer","clicked"],["A ","false"],["M ","false"],["D ","false"],["N ","false"],["B ","false"],["F ","false"],["H ","false"],["G ","false"],["O ","false"],["C ","false"],["J ","false"],["I ","false"],["E ","false"],["L ","false"],["K ","false"]],"correct":1,"scaffold":"none","question":"starts","scenario":"longmire","graph":"triangular","condition":4,"session":"hotel","experiment":"reverse","subject":"4NF5A","internal_node_id":"0.0-6.0-5.0","time_elapsed":376788,"trial_index":11,"trial_type":"html","url":"../views/src/external/stimulus.html","rt":30457},{"block":"triangular_testing","helps":0,"answer":["B","F"],"clicked":[["answer","clicked"],["A ","false"],["M ","false"],["D ","false"],["N ","false"],["B ","false"],["F ","false"],["H ","false"],["G ","false"],["O ","false"],["C ","false"],["J ","false"],["I ","false"],["E ","false"],["L ","false"],["K ","false"]],"correct":0,"scaffold":"none","question":"contain+duration","scenario":"longmire","graph":"triangular","condition":4,"session":"hotel","experiment":"reverse","subject":"4NF5A","internal_node_id":"0.0-6.0-4.0","time_elapsed":411311,"trial_index":12,"trial_type":"html","url":"../views/src/external/stimulus.html","rt":33265},{"block":"triangular_testing","helps":0,"answer":["A","B","C","D","F","I"],"clicked":[["answer","clicked"],["A ","false"],["M ","false"],["D ","false"],["N ","false"],["B ","false"],["F ","false"],["H ","false"],["G ","false"],["O ","false"],["C ","false"],["J ","false"],["I ","false"],["E ","false"],["L ","false"],["K ","false"]],"correct":1,"scaffold":"none","question":"before+overlap","scenario":"longmire","graph":"triangular","condition":4,"session":"hotel","experiment":"reverse","subject":"4NF5A","internal_node_id":"0.0-6.0-1.0","time_elapsed":458810,"trial_index":13,"trial_type":"html","url":"../views/src/external/stimulus.html","rt":46247},{"block":"triangular_testing","helps":0,"answer":["K","L"],"clicked":[["answer","clicked"],["A ","false"],["M ","false"],["D ","false"],["N ","false"],["B ","false"],["F ","false"],["H ","false"],["G ","false"],["O ","false"],["C ","false"],["J ","false"],["I ","false"],["E ","false"],["L ","false"],["K ","false"]],"correct":1,"scaffold":"none","question":"during+overlap","scenario":"longmire","graph":"triangular","condition":4,"session":"hotel","experiment":"reverse","subject":"4NF5A","internal_node_id":"0.0-6.0-3.0","time_elapsed":497329,"trial_index":14,"trial_type":"html","url":"../views/src/external/stimulus.html","rt":37258},{"block":"triangular_testing","helps":0,"answer":["4","5"],"clicked":[["answer","clicked"],["A ","false"],["M ","false"],["D ","false"],["N ","false"],["B ","false"],["F ","false"],["H ","false"],["G ","false"],["O ","false"],["C ","false"],["J ","false"],["I ","false"],["E ","false"],["L ","false"],["K ","false"]],"correct":1,"scaffold":"none","question":"finishes","scenario":"longmire","graph":"triangular","condition":4,"session":"hotel","experiment":"reverse","subject":"4NF5A","internal_node_id":"0.0-6.0-6.0","time_elapsed":525485,"trial_index":15,"trial_type":"html","url":"../views/src/external/stimulus.html","rt":26905},{"block":"triangular_testing","helps":0,"answer":["C"],"clicked":[["answer","clicked"],["A ","false"],["M ","false"],["D ","false"],["N ","false"],["B ","false"],["F ","false"],["H ","false"],["G ","false"],["O ","false"],["C ","false"],["J ","false"],["I ","false"],["E ","false"],["L ","false"],["K ","false"]],"correct":1,"scaffold":"none","question":"starts+finishes","scenario":"longmire","graph":"triangular","condition":4,"session":"hotel","experiment":"reverse","subject":"4NF5A","internal_node_id":"0.0-6.0-9.0","time_elapsed":542493,"trial_index":16,"trial_type":"html","url":"../views/src/external/stimulus.html","rt":15741},{"block":"triangular_testing","helps":0,"answer":["B","C","D","F","G"],"clicked":[["answer","clicked"],["A ","false"],["M ","false"],["D ","false"],["N ","false"],["B ","false"],["F ","false"],["H ","false"],["G ","false"],["O ","false"],["C ","false"],["J ","false"],["I ","false"],["E ","false"],["L ","false"],["K ","false"]],"correct":1,"scaffold":"none","question":"during","scenario":"longmire","graph":"triangular","condition":4,"session":"hotel","experiment":"reverse","subject":"4NF5A","internal_node_id":"0.0-6.0-7.0","time_elapsed":573431,"trial_index":17,"trial_type":"html","url":"../views/src/external/stimulus.html","rt":29575},{"block":"triangular_testing","helps":0,"answer":["A","M","N"],"clicked":[["answer","clicked"],["A ","false"],["M ","false"],["D ","false"],["N ","false"],["B ","false"],["F ","false"],["H ","false"],["G ","false"],["O ","false"],["C ","false"],["J ","false"],["I ","false"],["E ","false"],["L ","false"],["K ","false"]],"correct":1,"scaffold":"none","question":"overlap+overlap","scenario":"longmire","graph":"triangular","condition":4,"session":"hotel","experiment":"reverse","subject":"4NF5A","internal_node_id":"0.0-6.0-2.0","time_elapsed":608255,"trial_index":18,"trial_type":"html","url":"../views/src/external/stimulus.html","rt":33572},{"block":"triangular_testing","helps":0,"answer":["O"],"clicked":[["answer","clicked"],["A ","false"],["M ","false"],["D ","false"],["N ","false"],["B ","false"],["F ","false"],["H ","false"],["G ","false"],["O ","false"],["C ","false"],["J ","false"],["I ","false"],["E ","false"],["L ","false"],["K ","false"]],"correct":1,"scaffold":"none","question":"meets","scenario":"longmire","graph":"triangular","condition":4,"session":"hotel","experiment":"reverse","subject":"4NF5A","internal_node_id":"0.0-6.0-8.0","time_elapsed":630288,"trial_index":19,"trial_type":"html","url":"../views/src/external/stimulus.html","rt":20781},{"condition":4,"session":"hotel","experiment":"reverse","subject":"4NF5A","internal_node_id":"0.0-7.0","time_elapsed":645360,"trial_index":20,"trial_type":"single-stim","block":"scenario-one","key_press":13,"stimulus":"img/axis.png","rt":14067},{"block":"linear_scaffolded","helps":0,"clicked":[["answer","clicked"],["M ","false"],["B ","false"],["J ","false"],["N ","false"],["D ","false"],["O ","false"],["K ","false"],["C ","false"],["F ","false"],["I ","false"],["H ","false"],["G ","false"],["L ","false"],["E ","false"],["A ","false"]],"answer":["H","O"],"correct":1,"scaffold":"show-interactive","question":"start","scenario":"axis","graph":"linear","condition":4,"session":"hotel","experiment":"reverse","subject":"4NF5A","internal_node_id":"0.0-8.0-0.0","time_elapsed":666866,"trial_index":21,"trial_type":"html","url":"../views/src/external/stimulus.html","rt":20259},{"block":"linear_scaffolded","helps":0,"clicked":[["answer","clicked"],["M ","false"],["B ","false"],["J ","false"],["N ","false"],["D ","false"],["O ","false"],["K ","false"],["C ","false"],["F ","false"],["I ","false"],["H ","false"],["G ","false"],["L ","false"],["E ","false"],["A ","false"]],"answer":["4"],"correct":1,"scaffold":"show-interactive","question":"end","scenario":"axis","graph":"linear","condition":4,"session":"hotel","experiment":"reverse","subject":"4NF5A","internal_node_id":"0.0-8.0-1.0","time_elapsed":677145,"trial_index":22,"trial_type":"html","url":"../views/src/external/stimulus.html","rt":9029},{"block":"linear_scaffolded","helps":0,"clicked":[["answer","clicked"],["M ","false"],["B ","false"],["J ","false"],["N ","false"],["D ","false"],["O ","false"],["K ","false"],["C ","false"],["F ","false"],["I ","false"],["H ","false"],["G ","false"],["L ","false"],["E ","false"],["A ","false"]],"answer":["A","C","E","F","G","H","I","K","L"],"correct":1,"scaffold":"show-interactive","question":"duration","scenario":"axis","graph":"linear","condition":4,"session":"hotel","experiment":"reverse","subject":"4NF5A","internal_node_id":"0.0-8.0-2.0","time_elapsed":725445,"trial_index":23,"trial_type":"html","url":"../views/src/external/stimulus.html","rt":47037},{"block":"linear_scaffolded","helps":0,"clicked":[["answer","clicked"],["M ","false"],["B ","false"],["J ","false"],["N ","false"],["D ","false"],["O ","false"],["K ","false"],["C ","false"],["F ","false"],["I ","false"],["H ","false"],["G ","false"],["L ","false"],["E ","false"],["A ","false"]],"answer":["8"],"correct":1,"scaffold":"show-interactive","question":"midpoint","scenario":"axis","graph":"linear","condition":4,"session":"hotel","experiment":"reverse","subject":"4NF5A","internal_node_id":"0.0-8.0-3.0","time_elapsed":746100,"trial_index":24,"trial_type":"html","url":"../views/src/external/stimulus.html","rt":19403},{"block":"linear_scaffolded","helps":0,"clicked":[["answer","clicked"],["M ","false"],["B ","false"],["J ","false"],["N ","false"],["D ","false"],["O ","false"],["K ","false"],["C ","false"],["F ","false"],["I ","false"],["H ","false"],["G ","false"],["L ","false"],["E ","false"],["A ","false"]],"answer":["1"],"correct":0,"scaffold":"show-interactive","question":"start+overlap","scenario":"axis","graph":"linear","condition":4,"session":"hotel","experiment":"reverse","subject":"4NF5A","internal_node_id":"0.0-8.0-4.0","time_elapsed":764523,"trial_index":25,"trial_type":"html","url":"../views/src/external/stimulus.html","rt":17168},{"block":"linear_testing","helps":0,"clicked":[["answer","clicked"],["M ","false"],["B ","false"],["J ","false"],["N ","false"],["D ","false"],["O ","false"],["K ","false"],["C ","false"],["F ","false"],["I ","false"],["H ","false"],["G ","false"],["L ","false"],["E ","false"],["A ","false"]],"answer":["A"],"correct":1,"scaffold":"none","question":"during+overlap","scenario":"axis","graph":"linear","condition":4,"session":"hotel","experiment":"reverse","subject":"4NF5A","internal_node_id":"0.0-9.0-3.0","time_elapsed":801192,"trial_index":26,"trial_type":"html","url":"../views/src/external/stimulus.html","rt":35418},{"block":"linear_testing","helps":0,"clicked":[["answer","clicked"],["M ","false"],["B ","false"],["J ","false"],["N ","false"],["D ","false"],["O ","false"],["K ","false"],["C ","false"],["F ","false"],["I ","false"],["H ","false"],["G ","false"],["L ","false"],["E ","false"],["A ","false"]],"answer":["A","B","C","E","F","J"],"correct":0,"scaffold":"none","question":"overlap+overlap","scenario":"axis","graph":"linear","condition":4,"session":"hotel","experiment":"reverse","subject":"4NF5A","internal_node_id":"0.0-9.0-2.0","time_elapsed":835983,"trial_index":27,"trial_type":"html","url":"../views/src/external/stimulus.html","rt":33396},{"block":"linear_testing","helps":0,"clicked":[["answer","clicked"],["M ","false"],["B ","false"],["J ","false"],["N ","false"],["D ","false"],["O ","false"],["K ","false"],["C ","false"],["F ","false"],["I ","false"],["H ","false"],["G ","false"],["L ","false"],["E ","false"],["A ","false"]],"answer":["9"],"correct":1,"scaffold":"none","question":"start+duration","scenario":"axis","graph":"linear","condition":4,"session":"hotel","experiment":"reverse","subject":"4NF5A","internal_node_id":"0.0-9.0-0.0","time_elapsed":854236,"trial_index":28,"trial_type":"html","url":"../views/src/external/stimulus.html","rt":17002},{"block":"linear_testing","helps":0,"clicked":[["answer","clicked"],["M ","false"],["B ","false"],["J ","false"],["N ","false"],["D ","false"],["O ","false"],["K ","false"],["C ","false"],["F ","false"],["I ","false"],["H ","false"],["G ","false"],["L ","false"],["E ","false"],["A ","false"]],"answer":["G","O"],"correct":1,"scaffold":"none","question":"finishes","scenario":"axis","graph":"linear","condition":4,"session":"hotel","experiment":"reverse","subject":"4NF5A","internal_node_id":"0.0-9.0-6.0","time_elapsed":867203,"trial_index":29,"trial_type":"html","url":"../views/src/external/stimulus.html","rt":11712},{"block":"linear_testing","helps":0,"clicked":[["answer","clicked"],["M ","false"],["B ","false"],["J ","false"],["N ","false"],["D ","false"],["O ","false"],["K ","false"],["C ","false"],["F ","false"],["I ","false"],["H ","false"],["G ","false"],["L ","false"],["E ","false"],["A ","false"]],"answer":["G"],"correct":1,"scaffold":"none","question":"starts+finishes","scenario":"axis","graph":"linear","condition":4,"session":"hotel","experiment":"reverse","subject":"4NF5A","internal_node_id":"0.0-9.0-9.0","time_elapsed":880837,"trial_index":30,"trial_type":"html","url":"../views/src/external/stimulus.html","rt":12388},{"block":"linear_testing","helps":0,"clicked":[["answer","clicked"],["M ","false"],["B ","false"],["J ","false"],["N ","false"],["D ","false"],["O ","false"],["K ","false"],["C ","false"],["F ","false"],["I ","false"],["H ","false"],["G ","false"],["L ","false"],["E ","false"],["A ","false"]],"answer":["F","K","L","O"],"correct":0,"scaffold":"none","question":"before+overlap","scenario":"axis","graph":"linear","condition":4,"session":"hotel","experiment":"reverse","subject":"4NF5A","internal_node_id":"0.0-9.0-1.0","time_elapsed":924380,"trial_index":31,"trial_type":"html","url":"../views/src/external/stimulus.html","rt":42292},{"block":"linear_testing","helps":0,"clicked":[["answer","clicked"],["M ","false"],["B ","false"],["J ","false"],["N ","false"],["D ","false"],["O ","false"],["K ","false"],["C ","false"],["F ","false"],["I ","false"],["H ","false"],["G ","false"],["L ","false"],["E ","false"],["A ","false"]],"answer":["5"],"correct":0,"scaffold":"none","question":"starts","scenario":"axis","graph":"linear","condition":4,"session":"hotel","experiment":"reverse","subject":"4NF5A","internal_node_id":"0.0-9.0-5.0","time_elapsed":938936,"trial_index":32,"trial_type":"html","url":"../views/src/external/stimulus.html","rt":13303},{"block":"linear_testing","helps":0,"clicked":[["answer","clicked"],["M ","false"],["B ","false"],["J ","false"],["N ","false"],["D ","false"],["O ","false"],["K ","false"],["C ","false"],["F ","false"],["I ","false"],["H ","false"],["G ","false"],["L ","false"],["E ","false"],["A ","false"]],"answer":["D","M","N","O"],"correct":1,"scaffold":"none","question":"contain+duration","scenario":"axis","graph":"linear","condition":4,"session":"hotel","experiment":"reverse","subject":"4NF5A","internal_node_id":"0.0-9.0-4.0","time_elapsed":966665,"trial_index":33,"trial_type":"html","url":"../views/src/external/stimulus.html","rt":26471},{"block":"linear_testing","helps":0,"clicked":[["answer","clicked"],["M ","false"],["B ","false"],["J ","false"],["N ","false"],["D ","false"],["O ","false"],["K ","false"],["C ","false"],["F ","false"],["I ","false"],["H ","false"],["G ","false"],["L ","false"],["E ","false"],["A ","false"]],"answer":["M","O"],"correct":0,"scaffold":"none","question":"meets","scenario":"axis","graph":"linear","condition":4,"session":"hotel","experiment":"reverse","subject":"4NF5A","internal_node_id":"0.0-9.0-8.0","time_elapsed":1009306,"trial_index":34,"trial_type":"html","url":"../views/src/external/stimulus.html","rt":41392},{"block":"linear_testing","helps":0,"clicked":[["answer","clicked"],["M ","false"],["B ","false"],["J ","false"],["N ","false"],["D ","false"],["O ","false"],["K ","false"],["C ","false"],["F ","false"],["I ","false"],["H ","false"],["G ","false"],["L ","false"],["E ","false"],["A ","false"]],"answer":["A","E","F","H","J","L","M","O"],"correct":0,"scaffold":"none","question":"during","scenario":"axis","graph":"linear","condition":4,"session":"hotel","experiment":"reverse","subject":"4NF5A","internal_node_id":"0.0-9.0-7.0","time_elapsed":1051582,"trial_index":35,"trial_type":"html","url":"../views/src/external/stimulus.html","rt":41025},{"condition":4,"session":"hotel","experiment":"reverse","subject":"4NF5A","internal_node_id":"0.0-10.0","time_elapsed":1070367,"trial_index":36,"trial_type":"single-stim","block":"scenario-draw","key_press":13,"stimulus":"img/jones.png","rt":17780},{"condition":4,"session":"hotel","experiment":"reverse","subject":"4NF5A","internal_node_id":"0.0-11.0","time_elapsed":1600103,"trial_index":37,"trial_type":"html","block":"instructions_drawing","url":"../views/src/external/instructions_draw.html","rt":528603},{"block":"drawingTest","clicked":[["answer","clicked"]],"answer":["C1"],"correct":1,"scaffold":"none","question":"duration","scenario":"jones","graph":"none","condition":4,"session":"hotel","experiment":"reverse","subject":"4NF5A","internal_node_id":"0.0-12.0","time_elapsed":1734705,"trial_index":38,"trial_type":"html","url":"../views/src/external/stimulus.html","rt":133175},{"block":"drawingTest","clicked":[["answer","clicked"]],"answer":["Chris","3-4pm"],"correct":1,"scaffold":"none","question":"overlap","scenario":"jones","graph":"none","condition":4,"session":"hotel","experiment":"reverse","subject":"4NF5A","internal_node_id":"0.0-13.0","time_elapsed":1791571,"trial_index":39,"trial_type":"html","url":"../views/src/external/stimulus.html","rt":55531},{"condition":4,"session":"hotel","experiment":"reverse","subject":"4NF5A","internal_node_id":"0.0-14.0","time_elapsed":1798189,"trial_index":40,"trial_type":"survey-text","block":"demo-1","responses":"{\"Q0\":\"21\",\"Q1\":\"US\"}","rt":5608},{"condition":4,"session":"hotel","experiment":"reverse","subject":"4NF5A","internal_node_id":"0.0-15.0","time_elapsed":1815639,"trial_index":41,"trial_type":"survey-multi-choice","block":"demo-2","responses":"{\"Q0\":\"English\",\"Q1\":\"Fourth\",\"Q2\":\"Social Sciences (incl. CogSci)\",\"Q3\":\"Female\",\"Q4\":\"the first one (linear\"}","rt":16430},{"condition":4,"session":"hotel","experiment":"reverse","subject":"4NF5A","internal_node_id":"0.0-16.0","time_elapsed":1830937,"trial_index":42,"trial_type":"html","block":"debrief","url":"../views/src/external/debrief.html","rt":14054}],"__v":0}
