{"_id":{"$oid":"58c30d4b0393500004892656"},"data":[{"condition":2,"session":"india","experiment":"experiment","subject":"5KVW9","internal_node_id":"0.0-0.0","time_elapsed":110362,"trial_index":0,"trial_type":"single-stim","block":"phone","key_press":13,"stimulus":"img/phone.png","rt":110353},{"condition":2,"session":"india","experiment":"experiment","subject":"5KVW9","internal_node_id":"0.0-1.0","time_elapsed":116691,"trial_index":1,"trial_type":"html","block":"consent","url":"../views/src/external/consent.html","rt":4977},{"condition":2,"session":"india","experiment":"experiment","subject":"5KVW9","internal_node_id":"0.0-2.0","time_elapsed":122073,"trial_index":2,"trial_type":"survey-text","block":"codes","responses":"{\"Q0\":\"INDIA\",\"Q1\":\"2\"}","rt":4374},{"condition":2,"session":"india","experiment":"experiment","subject":"5KVW9","internal_node_id":"0.0-3.0","time_elapsed":132622,"trial_index":3,"trial_type":"html","block":"instructions_lab","url":"../views/src/external/instructions_lab.html","rt":9360},{"condition":2,"session":"india","experiment":"experiment","subject":"5KVW9","internal_node_id":"0.0-4.0","time_elapsed":148155,"trial_index":4,"trial_type":"single-stim","block":"scenario-one","key_press":13,"stimulus":"img/axis.png","rt":14531},{"block":"linear_scaffolded","helps":0,"clicked":[["answer","clicked"],["M ","false"],["B ","false"],["J ","false"],["N ","false"],["D ","false"],["O ","false"],["K ","false"],["C ","false"],["F ","false"],["I ","false"],["H ","false"],["G ","false"],["L ","false"],["E ","false"],["A ","false"]],"answer":["H","O"],"correct":1,"scaffold":"describe-how","question":"start","scenario":"axis","graph":"linear","condition":2,"session":"india","experiment":"experiment","subject":"5KVW9","internal_node_id":"0.0-5.0-0.0","time_elapsed":166260,"trial_index":5,"trial_type":"html","url":"../views/src/external/stimulus.html","rt":16598},{"block":"linear_scaffolded","helps":0,"clicked":[["answer","clicked"],["M ","false"],["B ","false"],["J ","false"],["N ","false"],["D ","false"],["O ","false"],["K ","false"],["C ","false"],["F ","false"],["I ","false"],["H ","false"],["G ","false"],["L ","false"],["E ","false"],["A ","false"]],"answer":["4"],"correct":1,"scaffold":"describe-how","question":"end","scenario":"axis","graph":"linear","condition":2,"session":"india","experiment":"experiment","subject":"5KVW9","internal_node_id":"0.0-5.0-1.0","time_elapsed":175684,"trial_index":6,"trial_type":"html","url":"../views/src/external/stimulus.html","rt":8155},{"block":"linear_scaffolded","helps":0,"clicked":[["answer","clicked"],["M ","false"],["B ","false"],["J ","false"],["N ","false"],["D ","false"],["O ","false"],["K ","false"],["C ","false"],["F ","false"],["I ","false"],["H ","false"],["G ","false"],["L ","false"],["E ","false"],["A ","false"]],"answer":["A","E","L"],"correct":0,"scaffold":"describe-how","question":"duration","scenario":"axis","graph":"linear","condition":2,"session":"india","experiment":"experiment","subject":"5KVW9","internal_node_id":"0.0-5.0-2.0","time_elapsed":199548,"trial_index":7,"trial_type":"html","url":"../views/src/external/stimulus.html","rt":22614},{"block":"linear_scaffolded","helps":0,"clicked":[["answer","clicked"],["M ","false"],["B ","false"],["J ","false"],["N ","false"],["D ","false"],["O ","false"],["K ","false"],["C ","false"],["F ","false"],["I ","false"],["H ","false"],["G ","false"],["L ","false"],["E ","false"],["A ","false"]],"answer":["8"],"correct":1,"scaffold":"describe-how","question":"midpoint","scenario":"axis","graph":"linear","condition":2,"session":"india","experiment":"experiment","subject":"5KVW9","internal_node_id":"0.0-5.0-3.0","time_elapsed":253063,"trial_index":8,"trial_type":"html","url":"../views/src/external/stimulus.html","rt":52254},{"block":"linear_scaffolded","helps":0,"clicked":[["answer","clicked"],["M ","false"],["B ","false"],["J ","false"],["N ","false"],["D ","false"],["O ","false"],["K ","false"],["C ","false"],["F ","false"],["I ","false"],["H ","false"],["G ","false"],["L ","false"],["E ","false"],["A ","false"]],"answer":["10"],"correct":0,"scaffold":"describe-how","question":"start+overlap","scenario":"axis","graph":"linear","condition":2,"session":"india","experiment":"experiment","subject":"5KVW9","internal_node_id":"0.0-5.0-4.0","time_elapsed":273342,"trial_index":9,"trial_type":"html","url":"../views/src/external/stimulus.html","rt":19020},{"block":"linear_testing","helps":0,"clicked":[["answer","clicked"],["M ","false"],["B ","false"],["J ","false"],["N ","false"],["D ","false"],["O ","false"],["K ","false"],["C ","false"],["F ","false"],["I ","false"],["H ","false"],["G ","false"],["L ","false"],["E ","false"],["A ","false"]],"answer":["10"],"correct":0,"scaffold":"none","question":"starts","scenario":"axis","graph":"linear","condition":2,"session":"india","experiment":"experiment","subject":"5KVW9","internal_node_id":"0.0-6.0-5.0","time_elapsed":300789,"trial_index":10,"trial_type":"html","url":"../views/src/external/stimulus.html","rt":26193},{"block":"linear_testing","helps":0,"clicked":[["answer","clicked"],["M ","false"],["B ","false"],["J ","false"],["N ","false"],["D ","false"],["O ","false"],["K ","false"],["C ","false"],["F ","false"],["I ","false"],["H ","false"],["G ","false"],["L ","false"],["E ","false"],["A ","false"]],"answer":["A"],"correct":1,"scaffold":"none","question":"during+overlap","scenario":"axis","graph":"linear","condition":2,"session":"india","experiment":"experiment","subject":"5KVW9","internal_node_id":"0.0-6.0-3.0","time_elapsed":317341,"trial_index":11,"trial_type":"html","url":"../views/src/external/stimulus.html","rt":15297},{"block":"linear_testing","helps":0,"clicked":[["answer","clicked"],["M ","false"],["B ","false"],["J ","false"],["N ","false"],["D ","false"],["O ","false"],["K ","false"],["C ","false"],["F ","false"],["I ","false"],["H ","false"],["G ","false"],["L ","false"],["E ","false"],["A ","false"]],"answer":["G"],"correct":1,"scaffold":"none","question":"meets","scenario":"axis","graph":"linear","condition":2,"session":"india","experiment":"experiment","subject":"5KVW9","internal_node_id":"0.0-6.0-8.0","time_elapsed":333321,"trial_index":12,"trial_type":"html","url":"../views/src/external/stimulus.html","rt":14729},{"block":"linear_testing","helps":0,"clicked":[["answer","clicked"],["M ","false"],["B ","false"],["J ","false"],["N ","false"],["D ","false"],["O ","false"],["K ","false"],["C ","false"],["F ","false"],["I ","false"],["H ","false"],["G ","false"],["L ","false"],["E ","false"],["A ","false"]],"answer":["G","O"],"correct":1,"scaffold":"none","question":"finishes","scenario":"axis","graph":"linear","condition":2,"session":"india","experiment":"experiment","subject":"5KVW9","internal_node_id":"0.0-6.0-6.0","time_elapsed":348320,"trial_index":13,"trial_type":"html","url":"../views/src/external/stimulus.html","rt":13727},{"block":"linear_testing","helps":0,"clicked":[["answer","clicked"],["M ","false"],["B ","false"],["J ","false"],["N ","false"],["D ","false"],["O ","false"],["K ","false"],["C ","false"],["F ","false"],["I ","false"],["H ","false"],["G ","false"],["L ","false"],["E ","false"],["A ","false"]],"answer":["4"],"correct":0,"scaffold":"none","question":"start+duration","scenario":"axis","graph":"linear","condition":2,"session":"india","experiment":"experiment","subject":"5KVW9","internal_node_id":"0.0-6.0-0.0","time_elapsed":379747,"trial_index":14,"trial_type":"html","url":"../views/src/external/stimulus.html","rt":30175},{"block":"linear_testing","helps":0,"clicked":[["answer","clicked"],["M ","false"],["B ","false"],["J ","false"],["N ","false"],["D ","false"],["O ","false"],["K ","false"],["C ","false"],["F ","false"],["I ","false"],["H ","false"],["G ","false"],["L ","false"],["E ","false"],["A ","false"]],"answer":["E"],"correct":0,"scaffold":"none","question":"starts+finishes","scenario":"axis","graph":"linear","condition":2,"session":"india","experiment":"experiment","subject":"5KVW9","internal_node_id":"0.0-6.0-9.0","time_elapsed":393723,"trial_index":15,"trial_type":"html","url":"../views/src/external/stimulus.html","rt":12710},{"block":"linear_testing","helps":0,"clicked":[["answer","clicked"],["M ","false"],["B ","false"],["J ","false"],["N ","false"],["D ","false"],["O ","false"],["K ","false"],["C ","false"],["F ","false"],["I ","false"],["H ","false"],["G ","false"],["L ","false"],["E ","false"],["A ","false"]],"answer":["A","B","C","E","F","J"],"correct":0,"scaffold":"none","question":"overlap+overlap","scenario":"axis","graph":"linear","condition":2,"session":"india","experiment":"experiment","subject":"5KVW9","internal_node_id":"0.0-6.0-2.0","time_elapsed":421684,"trial_index":16,"trial_type":"html","url":"../views/src/external/stimulus.html","rt":26700},{"block":"linear_testing","helps":0,"clicked":[["answer","clicked"],["M ","false"],["B ","false"],["J ","false"],["N ","false"],["D ","false"],["O ","false"],["K ","false"],["C ","false"],["F ","false"],["I ","false"],["H ","false"],["G ","false"],["L ","false"],["E ","false"],["A ","false"]],"answer":["F","G","O"],"correct":0,"scaffold":"none","question":"before+overlap","scenario":"axis","graph":"linear","condition":2,"session":"india","experiment":"experiment","subject":"5KVW9","internal_node_id":"0.0-6.0-1.0","time_elapsed":440641,"trial_index":17,"trial_type":"html","url":"../views/src/external/stimulus.html","rt":17702},{"block":"linear_testing","helps":0,"clicked":[["answer","clicked"],["M ","false"],["B ","false"],["J ","false"],["N ","false"],["D ","false"],["O ","false"],["K ","false"],["C ","false"],["F ","false"],["I ","false"],["H ","false"],["G ","false"],["L ","false"],["E ","false"],["A ","false"]],"answer":["F"],"correct":0,"scaffold":"none","question":"during","scenario":"axis","graph":"linear","condition":2,"session":"india","experiment":"experiment","subject":"5KVW9","internal_node_id":"0.0-6.0-7.0","time_elapsed":454391,"trial_index":18,"trial_type":"html","url":"../views/src/external/stimulus.html","rt":12499},{"block":"linear_testing","helps":0,"clicked":[["answer","clicked"],["M ","false"],["B ","false"],["J ","false"],["N ","false"],["D ","false"],["O ","false"],["K ","false"],["C ","false"],["F ","false"],["I ","false"],["H ","false"],["G ","false"],["L ","false"],["E ","false"],["A ","false"]],"answer":["D","H","N","O"],"correct":0,"scaffold":"none","question":"contain+duration","scenario":"axis","graph":"linear","condition":2,"session":"india","experiment":"experiment","subject":"5KVW9","internal_node_id":"0.0-6.0-4.0","time_elapsed":482082,"trial_index":19,"trial_type":"html","url":"../views/src/external/stimulus.html","rt":26427},{"condition":2,"session":"india","experiment":"experiment","subject":"5KVW9","internal_node_id":"0.0-7.0","time_elapsed":491623,"trial_index":20,"trial_type":"single-stim","block":"scenario-two","key_press":13,"stimulus":"img/longmire.png","rt":8535},{"block":"triangular_scaffolded","helps":0,"clicked":[["answer","clicked"],["A ","false"],["M ","false"],["D ","false"],["N ","false"],["B ","false"],["F ","false"],["H ","false"],["G ","false"],["O ","false"],["C ","false"],["J ","false"],["I ","false"],["E ","false"],["L ","false"],["K ","false"]],"answer":[],"correct":0,"scaffold":"describe-how","question":"start","scenario":"longmire","graph":"triangular","condition":2,"session":"india","experiment":"experiment","subject":"5KVW9","internal_node_id":"0.0-8.0-0.0","time_elapsed":517145,"trial_index":21,"trial_type":"html","url":"../views/src/external/stimulus.html","rt":24250},{"block":"triangular_scaffolded","helps":0,"clicked":[["answer","clicked"],["A ","false"],["M ","false"],["D ","false"],["N ","false"],["B ","false"],["F ","false"],["H ","false"],["G ","false"],["O ","false"],["C ","false"],["J ","false"],["I ","false"],["E ","false"],["L ","false"],["K ","false"]],"answer":["M","N"],"correct":0,"scaffold":"describe-how","question":"end","scenario":"longmire","graph":"triangular","condition":2,"session":"india","experiment":"experiment","subject":"5KVW9","internal_node_id":"0.0-8.0-1.0","time_elapsed":528377,"trial_index":22,"trial_type":"html","url":"../views/src/external/stimulus.html","rt":9985},{"block":"triangular_scaffolded","helps":0,"clicked":[["answer","clicked"],["A ","false"],["M ","false"],["D ","false"],["N ","false"],["B ","false"],["F ","false"],["H ","false"],["G ","false"],["O ","false"],["C ","false"],["J ","false"],["I ","false"],["E ","false"],["L ","false"],["K ","false"]],"answer":["E"],"correct":0,"scaffold":"describe-how","question":"duration","scenario":"longmire","graph":"triangular","condition":2,"session":"india","experiment":"experiment","subject":"5KVW9","internal_node_id":"0.0-8.0-2.0","time_elapsed":552528,"trial_index":23,"trial_type":"html","url":"../views/src/external/stimulus.html","rt":22888},{"block":"triangular_scaffolded","helps":0,"clicked":[["answer","clicked"],["A ","false"],["M ","false"],["D ","false"],["N ","false"],["B ","false"],["F ","false"],["H ","false"],["G ","false"],["O ","false"],["C ","false"],["J ","false"],["I ","false"],["E ","false"],["L ","false"],["K ","false"]],"answer":["4"],"correct":0,"scaffold":"describe-how","question":"midpoint","scenario":"longmire","graph":"triangular","condition":2,"session":"india","experiment":"experiment","subject":"5KVW9","internal_node_id":"0.0-8.0-3.0","time_elapsed":577995,"trial_index":24,"trial_type":"html","url":"../views/src/external/stimulus.html","rt":24209},{"block":"triangular_scaffolded","helps":0,"clicked":[["answer","clicked"],["A ","false"],["M ","false"],["D ","false"],["N ","false"],["B ","false"],["F ","false"],["H ","false"],["G ","false"],["O ","false"],["C ","false"],["J ","false"],["I ","false"],["E ","false"],["L ","false"],["K ","false"]],"answer":["A"],"correct":1,"scaffold":"describe-how","question":"start+overlap","scenario":"longmire","graph":"triangular","condition":2,"session":"india","experiment":"experiment","subject":"5KVW9","internal_node_id":"0.0-8.0-4.0","time_elapsed":603359,"trial_index":25,"trial_type":"html","url":"../views/src/external/stimulus.html","rt":24109},{"block":"triangular_testing","helps":0,"answer":["A"],"clicked":[["answer","clicked"],["A ","false"],["M ","false"],["D ","false"],["N ","false"],["B ","false"],["F ","false"],["H ","false"],["G ","false"],["O ","false"],["C ","false"],["J ","false"],["I ","false"],["E ","false"],["L ","false"],["K ","false"]],"correct":0,"scaffold":"none","question":"overlap+overlap","scenario":"longmire","graph":"triangular","condition":2,"session":"india","experiment":"experiment","subject":"5KVW9","internal_node_id":"0.0-9.0-2.0","time_elapsed":630352,"trial_index":26,"trial_type":"html","url":"../views/src/external/stimulus.html","rt":25500},{"block":"triangular_testing","helps":0,"answer":["I"],"clicked":[["answer","clicked"],["A ","false"],["M ","false"],["D ","false"],["N ","false"],["B ","false"],["F ","false"],["H ","false"],["G ","false"],["O ","false"],["C ","false"],["J ","false"],["I ","false"],["E ","false"],["L ","false"],["K ","false"]],"correct":0,"scaffold":"none","question":"during+overlap","scenario":"longmire","graph":"triangular","condition":2,"session":"india","experiment":"experiment","subject":"5KVW9","internal_node_id":"0.0-9.0-3.0","time_elapsed":673104,"trial_index":27,"trial_type":"html","url":"../views/src/external/stimulus.html","rt":41481},{"block":"triangular_testing","helps":0,"answer":["B","I"],"clicked":[["answer","clicked"],["A ","false"],["M ","false"],["D ","false"],["N ","false"],["B ","false"],["F ","false"],["H ","false"],["G ","false"],["O ","false"],["C ","false"],["J ","false"],["I ","false"],["E ","false"],["L ","false"],["K ","false"]],"correct":0,"scaffold":"none","question":"starts+finishes","scenario":"longmire","graph":"triangular","condition":2,"session":"india","experiment":"experiment","subject":"5KVW9","internal_node_id":"0.0-9.0-9.0","time_elapsed":712427,"trial_index":28,"trial_type":"html","url":"../views/src/external/stimulus.html","rt":38070},{"block":"triangular_testing","helps":0,"answer":["A","B","D","F"],"clicked":[["answer","clicked"],["A ","false"],["M ","false"],["D ","false"],["N ","false"],["B ","false"],["F ","false"],["H ","false"],["G ","false"],["O ","false"],["C ","false"],["J ","false"],["I ","false"],["E ","false"],["L ","false"],["K ","false"]],"correct":1,"scaffold":"none","question":"start+duration","scenario":"longmire","graph":"triangular","condition":2,"session":"india","experiment":"experiment","subject":"5KVW9","internal_node_id":"0.0-9.0-0.0","time_elapsed":738229,"trial_index":29,"trial_type":"html","url":"../views/src/external/stimulus.html","rt":24489},{"block":"triangular_testing","helps":0,"answer":["B","D","F"],"clicked":[["answer","clicked"],["A ","false"],["M ","false"],["D ","false"],["N ","false"],["B ","false"],["F ","false"],["H ","false"],["G ","false"],["O ","false"],["C ","false"],["J ","false"],["I ","false"],["E ","false"],["L ","false"],["K ","false"]],"correct":0,"scaffold":"none","question":"before+overlap","scenario":"longmire","graph":"triangular","condition":2,"session":"india","experiment":"experiment","subject":"5KVW9","internal_node_id":"0.0-9.0-1.0","time_elapsed":765421,"trial_index":30,"trial_type":"html","url":"../views/src/external/stimulus.html","rt":25939},{"block":"triangular_testing","helps":0,"answer":["A","B","C","D","F"],"clicked":[["answer","clicked"],["A ","false"],["M ","false"],["D ","false"],["N ","false"],["B ","false"],["F ","false"],["H ","false"],["G ","false"],["O ","false"],["C ","false"],["J ","false"],["I ","false"],["E ","false"],["L ","false"],["K ","false"]],"correct":0,"scaffold":"none","question":"during","scenario":"longmire","graph":"triangular","condition":2,"session":"india","experiment":"experiment","subject":"5KVW9","internal_node_id":"0.0-9.0-7.0","time_elapsed":802879,"trial_index":31,"trial_type":"html","url":"../views/src/external/stimulus.html","rt":36200},{"block":"triangular_testing","helps":0,"answer":["6"],"clicked":[["answer","clicked"],["A ","false"],["M ","false"],["D ","false"],["N ","false"],["B ","false"],["F ","false"],["H ","false"],["G ","false"],["O ","false"],["C ","false"],["J ","false"],["I ","false"],["E ","false"],["L ","false"],["K ","false"]],"correct":0,"scaffold":"none","question":"finishes","scenario":"longmire","graph":"triangular","condition":2,"session":"india","experiment":"experiment","subject":"5KVW9","internal_node_id":"0.0-9.0-6.0","time_elapsed":830621,"trial_index":32,"trial_type":"html","url":"../views/src/external/stimulus.html","rt":26485},{"block":"triangular_testing","helps":0,"answer":["1"],"clicked":[["answer","clicked"],["A ","false"],["M ","false"],["D ","false"],["N ","false"],["B ","false"],["F ","false"],["H ","false"],["G ","false"],["O ","false"],["C ","false"],["J ","false"],["I ","false"],["E ","false"],["L ","false"],["K ","false"]],"correct":0,"scaffold":"none","question":"starts","scenario":"longmire","graph":"triangular","condition":2,"session":"india","experiment":"experiment","subject":"5KVW9","internal_node_id":"0.0-9.0-5.0","time_elapsed":847081,"trial_index":33,"trial_type":"html","url":"../views/src/external/stimulus.html","rt":15207},{"block":"triangular_testing","helps":0,"answer":["O"],"clicked":[["answer","clicked"],["A ","false"],["M ","false"],["D ","false"],["N ","false"],["B ","false"],["F ","false"],["H ","false"],["G ","false"],["O ","false"],["C ","false"],["J ","false"],["I ","false"],["E ","false"],["L ","false"],["K ","false"]],"correct":1,"scaffold":"none","question":"meets","scenario":"longmire","graph":"triangular","condition":2,"session":"india","experiment":"experiment","subject":"5KVW9","internal_node_id":"0.0-9.0-8.0","time_elapsed":874593,"trial_index":34,"trial_type":"html","url":"../views/src/external/stimulus.html","rt":26253},{"block":"triangular_testing","helps":0,"answer":["G","H","O"],"clicked":[["answer","clicked"],["A ","false"],["M ","false"],["D ","false"],["N ","false"],["B ","false"],["F ","false"],["H ","false"],["G ","false"],["O ","false"],["C ","false"],["J ","false"],["I ","false"],["E ","false"],["L ","false"],["K ","false"]],"correct":0,"scaffold":"none","question":"contain+duration","scenario":"longmire","graph":"triangular","condition":2,"session":"india","experiment":"experiment","subject":"5KVW9","internal_node_id":"0.0-9.0-4.0","time_elapsed":903573,"trial_index":35,"trial_type":"html","url":"../views/src/external/stimulus.html","rt":27732},{"condition":2,"session":"india","experiment":"experiment","subject":"5KVW9","internal_node_id":"0.0-10.0","time_elapsed":911702,"trial_index":36,"trial_type":"single-stim","block":"scenario-draw","key_press":13,"stimulus":"img/jones.png","rt":7126},{"condition":2,"session":"india","experiment":"experiment","subject":"5KVW9","internal_node_id":"0.0-11.0","time_elapsed":995872,"trial_index":37,"trial_type":"html","block":"instructions_drawing","url":"../views/src/external/instructions_draw.html","rt":83022},{"block":"drawingTest","clicked":[["answer","clicked"]],"answer":["C1"],"correct":1,"scaffold":"none","question":"duration","scenario":"jones","graph":"none","condition":2,"session":"india","experiment":"experiment","subject":"5KVW9","internal_node_id":"0.0-12.0","time_elapsed":1153817,"trial_index":38,"trial_type":"html","url":"../views/src/external/stimulus.html","rt":156582},{"block":"drawingTest","clicked":[["answer","clicked"]],"answer":["Chris","3-4pm"],"correct":1,"scaffold":"none","question":"overlap","scenario":"jones","graph":"none","condition":2,"session":"india","experiment":"experiment","subject":"5KVW9","internal_node_id":"0.0-13.0","time_elapsed":1338380,"trial_index":39,"trial_type":"html","url":"../views/src/external/stimulus.html","rt":183236},{"condition":2,"session":"india","experiment":"experiment","subject":"5KVW9","internal_node_id":"0.0-14.0","time_elapsed":1344475,"trial_index":40,"trial_type":"survey-text","block":"demo-1","responses":"{\"Q0\":\"23\",\"Q1\":\"Canada\"}","rt":5091},{"condition":2,"session":"india","experiment":"experiment","subject":"5KVW9","internal_node_id":"0.0-15.0","time_elapsed":1355585,"trial_index":41,"trial_type":"survey-multi-choice","block":"demo-2","responses":"{\"Q0\":\"English\",\"Q1\":\"Fourth\",\"Q2\":\"Social Sciences (incl. CogSci)\",\"Q3\":\"Female\",\"Q4\":\"the first one (linear\"}","rt":10090},{"condition":2,"session":"india","experiment":"experiment","subject":"5KVW9","internal_node_id":"0.0-16.0","time_elapsed":1361200,"trial_index":42,"trial_type":"html","block":"debrief","url":"../views/src/external/debrief.html","rt":4317}],"__v":0}
{"_id":{"$oid":"58c30d4e0393500004892657"},"data":[{"condition":0,"session":"india","experiment":"experiment","subject":"N0V08","internal_node_id":"0.0-0.0","time_elapsed":27733,"trial_index":0,"trial_type":"single-stim","block":"phone","key_press":13,"stimulus":"img/phone.png","rt":27725},{"condition":0,"session":"india","experiment":"experiment","subject":"N0V08","internal_node_id":"0.0-1.0","time_elapsed":46349,"trial_index":1,"trial_type":"html","block":"consent","url":"../views/src/external/consent.html","rt":17489},{"condition":0,"session":"india","experiment":"experiment","subject":"N0V08","internal_node_id":"0.0-2.0","time_elapsed":60658,"trial_index":2,"trial_type":"survey-text","block":"codes","responses":"{\"Q0\":\"INDIA\",\"Q1\":\"0\"}","rt":13299},{"condition":0,"session":"india","experiment":"experiment","subject":"N0V08","internal_node_id":"0.0-3.0","time_elapsed":71535,"trial_index":3,"trial_type":"html","block":"instructions_lab","url":"../views/src/external/instructions_lab.html","rt":9783},{"condition":0,"session":"india","experiment":"experiment","subject":"N0V08","internal_node_id":"0.0-4.0","time_elapsed":83324,"trial_index":4,"trial_type":"single-stim","block":"scenario-one","key_press":13,"stimulus":"img/axis.png","rt":10786},{"block":"linear_scaffolded","helps":0,"clicked":[["answer","clicked"],["M ","false"],["B ","false"],["J ","false"],["N ","false"],["D ","false"],["O ","false"],["K ","false"],["C ","false"],["F ","false"],["I ","false"],["H ","false"],["G ","false"],["L ","false"],["E ","false"],["A ","false"]],"answer":["H","O"],"correct":1,"scaffold":"none","question":"start","scenario":"axis","graph":"linear","condition":0,"session":"india","experiment":"experiment","subject":"N0V08","internal_node_id":"0.0-5.0-0.0","time_elapsed":101327,"trial_index":5,"trial_type":"html","url":"../views/src/external/stimulus.html","rt":16651},{"block":"linear_scaffolded","helps":0,"clicked":[["answer","clicked"],["M ","false"],["B ","false"],["J ","false"],["N ","false"],["D ","false"],["O ","false"],["K ","false"],["C ","false"],["F ","false"],["I ","false"],["H ","false"],["G ","false"],["L ","false"],["E ","false"],["A ","false"]],"answer":["4"],"correct":1,"scaffold":"none","question":"end","scenario":"axis","graph":"linear","condition":0,"session":"india","experiment":"experiment","subject":"N0V08","internal_node_id":"0.0-5.0-1.0","time_elapsed":110752,"trial_index":6,"trial_type":"html","url":"../views/src/external/stimulus.html","rt":8164},{"block":"linear_scaffolded","helps":0,"clicked":[["answer","clicked"],["M ","false"],["B ","false"],["J ","false"],["N ","false"],["D ","false"],["O ","false"],["K ","false"],["C ","false"],["F ","false"],["I ","false"],["H ","false"],["G ","false"],["L ","false"],["E ","false"],["A ","false"]],"answer":["A","E","L"],"correct":0,"scaffold":"none","question":"duration","scenario":"axis","graph":"linear","condition":0,"session":"india","experiment":"experiment","subject":"N0V08","internal_node_id":"0.0-5.0-2.0","time_elapsed":136733,"trial_index":7,"trial_type":"html","url":"../views/src/external/stimulus.html","rt":24693},{"block":"linear_scaffolded","helps":0,"clicked":[["answer","clicked"],["M ","false"],["B ","false"],["J ","false"],["N ","false"],["D ","false"],["O ","false"],["K ","false"],["C ","false"],["F ","false"],["I ","false"],["H ","false"],["G ","false"],["L ","false"],["E ","false"],["A ","false"]],"answer":["8"],"correct":1,"scaffold":"none","question":"midpoint","scenario":"axis","graph":"linear","condition":0,"session":"india","experiment":"experiment","subject":"N0V08","internal_node_id":"0.0-5.0-3.0","time_elapsed":162901,"trial_index":8,"trial_type":"html","url":"../views/src/external/stimulus.html","rt":24902},{"block":"linear_scaffolded","helps":0,"clicked":[["answer","clicked"],["M ","false"],["B ","false"],["J ","false"],["N ","false"],["D ","false"],["O ","false"],["K ","false"],["C ","false"],["F ","false"],["I ","false"],["H ","false"],["G ","false"],["L ","false"],["E ","false"],["A ","false"]],"answer":["7"],"correct":1,"scaffold":"none","question":"start+overlap","scenario":"axis","graph":"linear","condition":0,"session":"india","experiment":"experiment","subject":"N0V08","internal_node_id":"0.0-5.0-4.0","time_elapsed":181317,"trial_index":9,"trial_type":"html","url":"../views/src/external/stimulus.html","rt":17153},{"block":"linear_testing","helps":0,"clicked":[["answer","clicked"],["M ","false"],["B ","false"],["J ","false"],["N ","false"],["D ","false"],["O ","false"],["K ","false"],["C ","false"],["F ","false"],["I ","false"],["H ","false"],["G ","false"],["L ","false"],["E ","false"],["A ","false"]],"answer":["G"],"correct":1,"scaffold":"none","question":"meets","scenario":"axis","graph":"linear","condition":0,"session":"india","experiment":"experiment","subject":"N0V08","internal_node_id":"0.0-6.0-8.0","time_elapsed":199978,"trial_index":10,"trial_type":"html","url":"../views/src/external/stimulus.html","rt":17400},{"block":"linear_testing","helps":0,"clicked":[["answer","clicked"],["M ","false"],["B ","false"],["J ","false"],["N ","false"],["D ","false"],["O ","false"],["K ","false"],["C ","false"],["F ","false"],["I ","false"],["H ","false"],["G ","false"],["L ","false"],["E ","false"],["A ","false"]],"answer":["A"],"correct":1,"scaffold":"none","question":"during+overlap","scenario":"axis","graph":"linear","condition":0,"session":"india","experiment":"experiment","subject":"N0V08","internal_node_id":"0.0-6.0-3.0","time_elapsed":220166,"trial_index":11,"trial_type":"html","url":"../views/src/external/stimulus.html","rt":18937},{"block":"linear_testing","helps":0,"clicked":[["answer","clicked"],["M ","false"],["B ","false"],["J ","false"],["N ","false"],["D ","false"],["O ","false"],["K ","false"],["C ","false"],["F ","false"],["I ","false"],["H ","false"],["G ","false"],["L ","false"],["E ","false"],["A ","false"]],"answer":["F","M","O"],"correct":1,"scaffold":"none","question":"during","scenario":"axis","graph":"linear","condition":0,"session":"india","experiment":"experiment","subject":"N0V08","internal_node_id":"0.0-6.0-7.0","time_elapsed":249150,"trial_index":12,"trial_type":"html","url":"../views/src/external/stimulus.html","rt":27734},{"block":"linear_testing","helps":0,"clicked":[["answer","clicked"],["M ","false"],["B ","false"],["J ","false"],["N ","false"],["D ","false"],["O ","false"],["K ","false"],["C ","false"],["F ","false"],["I ","false"],["H ","false"],["G ","false"],["L ","false"],["E ","false"],["A ","false"]],"answer":["F","G","M","O"],"correct":1,"scaffold":"none","question":"before+overlap","scenario":"axis","graph":"linear","condition":0,"session":"india","experiment":"experiment","subject":"N0V08","internal_node_id":"0.0-6.0-1.0","time_elapsed":292165,"trial_index":13,"trial_type":"html","url":"../views/src/external/stimulus.html","rt":41753},{"block":"linear_testing","helps":0,"clicked":[["answer","clicked"],["M ","false"],["B ","false"],["J ","false"],["N ","false"],["D ","false"],["O ","false"],["K ","false"],["C ","false"],["F ","false"],["I ","false"],["H ","false"],["G ","false"],["L ","false"],["E ","false"],["A ","false"]],"answer":["G","O"],"correct":1,"scaffold":"none","question":"finishes","scenario":"axis","graph":"linear","condition":0,"session":"india","experiment":"experiment","subject":"N0V08","internal_node_id":"0.0-6.0-6.0","time_elapsed":304550,"trial_index":14,"trial_type":"html","url":"../views/src/external/stimulus.html","rt":11135},{"block":"linear_testing","helps":0,"clicked":[["answer","clicked"],["M ","false"],["B ","false"],["J ","false"],["N ","false"],["D ","false"],["O ","false"],["K ","false"],["C ","false"],["F ","false"],["I ","false"],["H ","false"],["G ","false"],["L ","false"],["E ","false"],["A ","false"]],"answer":["G"],"correct":1,"scaffold":"none","question":"starts+finishes","scenario":"axis","graph":"linear","condition":0,"session":"india","experiment":"experiment","subject":"N0V08","internal_node_id":"0.0-6.0-9.0","time_elapsed":321474,"trial_index":15,"trial_type":"html","url":"../views/src/external/stimulus.html","rt":15599},{"block":"linear_testing","helps":0,"clicked":[["answer","clicked"],["M ","false"],["B ","false"],["J ","false"],["N ","false"],["D ","false"],["O ","false"],["K ","false"],["C ","false"],["F ","false"],["I ","false"],["H ","false"],["G ","false"],["L ","false"],["E ","false"],["A ","false"]],"answer":["6"],"correct":1,"scaffold":"none","question":"starts","scenario":"axis","graph":"linear","condition":0,"session":"india","experiment":"experiment","subject":"N0V08","internal_node_id":"0.0-6.0-5.0","time_elapsed":346423,"trial_index":16,"trial_type":"html","url":"../views/src/external/stimulus.html","rt":23648},{"block":"linear_testing","helps":0,"clicked":[["answer","clicked"],["M ","false"],["B ","false"],["J ","false"],["N ","false"],["D ","false"],["O ","false"],["K ","false"],["C ","false"],["F ","false"],["I ","false"],["H ","false"],["G ","false"],["L ","false"],["E ","false"],["A ","false"]],"answer":["D","N","O"],"correct":0,"scaffold":"none","question":"contain+duration","scenario":"axis","graph":"linear","condition":0,"session":"india","experiment":"experiment","subject":"N0V08","internal_node_id":"0.0-6.0-4.0","time_elapsed":368252,"trial_index":17,"trial_type":"html","url":"../views/src/external/stimulus.html","rt":20577},{"block":"linear_testing","helps":0,"clicked":[["answer","clicked"],["M ","false"],["B ","false"],["J ","false"],["N ","false"],["D ","false"],["O ","false"],["K ","false"],["C ","false"],["F ","false"],["I ","false"],["H ","false"],["G ","false"],["L ","false"],["E ","false"],["A ","false"]],"answer":["A","B","C","E","J"],"correct":1,"scaffold":"none","question":"overlap+overlap","scenario":"axis","graph":"linear","condition":0,"session":"india","experiment":"experiment","subject":"N0V08","internal_node_id":"0.0-6.0-2.0","time_elapsed":400577,"trial_index":18,"trial_type":"html","url":"../views/src/external/stimulus.html","rt":31069},{"block":"linear_testing","helps":0,"clicked":[["answer","clicked"],["M ","false"],["B ","false"],["J ","false"],["N ","false"],["D ","false"],["O ","false"],["K ","false"],["C ","false"],["F ","false"],["I ","false"],["H ","false"],["G ","false"],["L ","false"],["E ","false"],["A ","false"]],"answer":["7"],"correct":0,"scaffold":"none","question":"start+duration","scenario":"axis","graph":"linear","condition":0,"session":"india","experiment":"experiment","subject":"N0V08","internal_node_id":"0.0-6.0-0.0","time_elapsed":417197,"trial_index":19,"trial_type":"html","url":"../views/src/external/stimulus.html","rt":15361},{"condition":0,"session":"india","experiment":"experiment","subject":"N0V08","internal_node_id":"0.0-7.0","time_elapsed":427787,"trial_index":20,"trial_type":"single-stim","block":"scenario-two","key_press":13,"stimulus":"img/longmire.png","rt":9586},{"block":"triangular_scaffolded","helps":0,"clicked":[["answer","clicked"],["A ","false"],["M ","false"],["D ","false"],["N ","false"],["B ","false"],["F ","false"],["H ","false"],["G ","false"],["O ","false"],["C ","false"],["J ","false"],["I ","false"],["E ","false"],["L ","false"],["K ","false"]],"answer":[],"correct":0,"scaffold":"none","question":"start","scenario":"longmire","graph":"triangular","condition":0,"session":"india","experiment":"experiment","subject":"N0V08","internal_node_id":"0.0-8.0-0.0","time_elapsed":448948,"trial_index":21,"trial_type":"html","url":"../views/src/external/stimulus.html","rt":19904},{"block":"triangular_scaffolded","helps":0,"clicked":[["answer","clicked"],["A ","false"],["M ","false"],["D ","false"],["N ","false"],["B ","false"],["F ","false"],["H ","false"],["G ","false"],["O ","false"],["C ","false"],["J ","false"],["I ","false"],["E ","false"],["L ","false"],["K ","false"]],"answer":["H","J","K","L","M","N","O"],"correct":1,"scaffold":"none","question":"end","scenario":"longmire","graph":"triangular","condition":0,"session":"india","experiment":"experiment","subject":"N0V08","internal_node_id":"0.0-8.0-1.0","time_elapsed":511509,"trial_index":22,"trial_type":"html","url":"../views/src/external/stimulus.html","rt":61302},{"block":"triangular_scaffolded","helps":0,"clicked":[["answer","clicked"],["A ","false"],["M ","false"],["D ","false"],["N ","false"],["B ","false"],["F ","false"],["H ","false"],["G ","false"],["O ","false"],["C ","false"],["J ","false"],["I ","false"],["E ","false"],["L ","false"],["K ","false"]],"answer":["G","O"],"correct":1,"scaffold":"none","question":"duration","scenario":"longmire","graph":"triangular","condition":0,"session":"india","experiment":"experiment","subject":"N0V08","internal_node_id":"0.0-8.0-2.0","time_elapsed":523293,"trial_index":23,"trial_type":"html","url":"../views/src/external/stimulus.html","rt":10386},{"block":"triangular_scaffolded","helps":0,"clicked":[["answer","clicked"],["A ","false"],["M ","false"],["D ","false"],["N ","false"],["B ","false"],["F ","false"],["H ","false"],["G ","false"],["O ","false"],["C ","false"],["J ","false"],["I ","false"],["E ","false"],["L ","false"],["K ","false"]],"answer":["1"],"correct":1,"scaffold":"none","question":"midpoint","scenario":"longmire","graph":"triangular","condition":0,"session":"india","experiment":"experiment","subject":"N0V08","internal_node_id":"0.0-8.0-3.0","time_elapsed":534005,"trial_index":24,"trial_type":"html","url":"../views/src/external/stimulus.html","rt":9459},{"block":"triangular_scaffolded","helps":0,"clicked":[["answer","clicked"],["A ","false"],["M ","false"],["D ","false"],["N ","false"],["B ","false"],["F ","false"],["H ","false"],["G ","false"],["O ","false"],["C ","false"],["J ","false"],["I ","false"],["E ","false"],["L ","false"],["K ","false"]],"answer":["A"],"correct":1,"scaffold":"none","question":"start+overlap","scenario":"longmire","graph":"triangular","condition":0,"session":"india","experiment":"experiment","subject":"N0V08","internal_node_id":"0.0-8.0-4.0","time_elapsed":546609,"trial_index":25,"trial_type":"html","url":"../views/src/external/stimulus.html","rt":11351},{"block":"triangular_testing","helps":0,"answer":["E","K","L"],"clicked":[["answer","clicked"],["A ","false"],["M ","false"],["D ","false"],["N ","false"],["B ","false"],["F ","false"],["H ","false"],["G ","false"],["O ","false"],["C ","false"],["J ","false"],["I ","false"],["E ","false"],["L ","false"],["K ","false"]],"correct":0,"scaffold":"none","question":"during+overlap","scenario":"longmire","graph":"triangular","condition":0,"session":"india","experiment":"experiment","subject":"N0V08","internal_node_id":"0.0-9.0-3.0","time_elapsed":585096,"trial_index":26,"trial_type":"html","url":"../views/src/external/stimulus.html","rt":37224},{"block":"triangular_testing","helps":0,"answer":["A","M","N"],"clicked":[["answer","clicked"],["A ","false"],["M ","false"],["D ","false"],["N ","false"],["B ","false"],["F ","false"],["H ","false"],["G ","false"],["O ","false"],["C ","false"],["J ","false"],["I ","false"],["E ","false"],["L ","false"],["K ","false"]],"correct":1,"scaffold":"none","question":"overlap+overlap","scenario":"longmire","graph":"triangular","condition":0,"session":"india","experiment":"experiment","subject":"N0V08","internal_node_id":"0.0-9.0-2.0","time_elapsed":615718,"trial_index":27,"trial_type":"html","url":"../views/src/external/stimulus.html","rt":29368},{"block":"triangular_testing","helps":0,"answer":["B","C","D","F","G","H","I","J","K","L","O"],"clicked":[["answer","clicked"],["A ","false"],["M ","false"],["D ","false"],["N ","false"],["B ","false"],["F ","false"],["H ","false"],["G ","false"],["O ","false"],["C ","false"],["J ","false"],["I ","false"],["E ","false"],["L ","false"],["K ","false"]],"correct":0,"scaffold":"none","question":"during","scenario":"longmire","graph":"triangular","condition":0,"session":"india","experiment":"experiment","subject":"N0V08","internal_node_id":"0.0-9.0-7.0","time_elapsed":700524,"trial_index":28,"trial_type":"html","url":"../views/src/external/stimulus.html","rt":83536},{"block":"triangular_testing","helps":0,"answer":["6","8"],"clicked":[["answer","clicked"],["A ","false"],["M ","false"],["D ","false"],["N ","false"],["B ","false"],["F ","false"],["H ","false"],["G ","false"],["O ","false"],["C ","false"],["J ","false"],["I ","false"],["E ","false"],["L ","false"],["K ","false"]],"correct":1,"scaffold":"none","question":"starts","scenario":"longmire","graph":"triangular","condition":0,"session":"india","experiment":"experiment","subject":"N0V08","internal_node_id":"0.0-9.0-5.0","time_elapsed":727129,"trial_index":29,"trial_type":"html","url":"../views/src/external/stimulus.html","rt":25253},{"block":"triangular_testing","helps":0,"answer":["B","D","F"],"clicked":[["answer","clicked"],["A ","false"],["M ","false"],["D ","false"],["N ","false"],["B ","false"],["F ","false"],["H ","false"],["G ","false"],["O ","false"],["C ","false"],["J ","false"],["I ","false"],["E ","false"],["L ","false"],["K ","false"]],"correct":0,"scaffold":"none","question":"start+duration","scenario":"longmire","graph":"triangular","condition":0,"session":"india","experiment":"experiment","subject":"N0V08","internal_node_id":"0.0-9.0-0.0","time_elapsed":767232,"trial_index":30,"trial_type":"html","url":"../views/src/external/stimulus.html","rt":38848},{"block":"triangular_testing","helps":0,"answer":["4","5"],"clicked":[["answer","clicked"],["A ","false"],["M ","false"],["D ","false"],["N ","false"],["B ","false"],["F ","false"],["H ","false"],["G ","false"],["O ","false"],["C ","false"],["J ","false"],["I ","false"],["E ","false"],["L ","false"],["K ","false"]],"correct":1,"scaffold":"none","question":"finishes","scenario":"longmire","graph":"triangular","condition":0,"session":"india","experiment":"experiment","subject":"N0V08","internal_node_id":"0.0-9.0-6.0","time_elapsed":784151,"trial_index":31,"trial_type":"html","url":"../views/src/external/stimulus.html","rt":15661},{"block":"triangular_testing","helps":0,"answer":["O"],"clicked":[["answer","clicked"],["A ","false"],["M ","false"],["D ","false"],["N ","false"],["B ","false"],["F ","false"],["H ","false"],["G ","false"],["O ","false"],["C ","false"],["J ","false"],["I ","false"],["E ","false"],["L ","false"],["K ","false"]],"correct":1,"scaffold":"none","question":"meets","scenario":"longmire","graph":"triangular","condition":0,"session":"india","experiment":"experiment","subject":"N0V08","internal_node_id":"0.0-9.0-8.0","time_elapsed":797044,"trial_index":32,"trial_type":"html","url":"../views/src/external/stimulus.html","rt":11646},{"block":"triangular_testing","helps":0,"answer":["G","O"],"clicked":[["answer","clicked"],["A ","false"],["M ","false"],["D ","false"],["N ","false"],["B ","false"],["F ","false"],["H ","false"],["G ","false"],["O ","false"],["C ","false"],["J ","false"],["I ","false"],["E ","false"],["L ","false"],["K ","false"]],"correct":1,"scaffold":"none","question":"contain+duration","scenario":"longmire","graph":"triangular","condition":0,"session":"india","experiment":"experiment","subject":"N0V08","internal_node_id":"0.0-9.0-4.0","time_elapsed":825546,"trial_index":33,"trial_type":"html","url":"../views/src/external/stimulus.html","rt":27223},{"block":"triangular_testing","helps":0,"answer":["A","B","C","D","F","I"],"clicked":[["answer","clicked"],["A ","false"],["M ","false"],["D ","false"],["N ","false"],["B ","false"],["F ","false"],["H ","false"],["G ","false"],["O ","false"],["C ","false"],["J ","false"],["I ","false"],["E ","false"],["L ","false"],["K ","false"]],"correct":1,"scaffold":"none","question":"before+overlap","scenario":"longmire","graph":"triangular","condition":0,"session":"india","experiment":"experiment","subject":"N0V08","internal_node_id":"0.0-9.0-1.0","time_elapsed":853872,"trial_index":34,"trial_type":"html","url":"../views/src/external/stimulus.html","rt":27074},{"block":"triangular_testing","helps":0,"answer":["C"],"clicked":[["answer","clicked"],["A ","false"],["M ","false"],["D ","false"],["N ","false"],["B ","false"],["F ","false"],["H ","false"],["G ","false"],["O ","false"],["C ","false"],["J ","false"],["I ","false"],["E ","false"],["L ","false"],["K ","false"]],"correct":1,"scaffold":"none","question":"starts+finishes","scenario":"longmire","graph":"triangular","condition":0,"session":"india","experiment":"experiment","subject":"N0V08","internal_node_id":"0.0-9.0-9.0","time_elapsed":870487,"trial_index":35,"trial_type":"html","url":"../views/src/external/stimulus.html","rt":15354},{"condition":0,"session":"india","experiment":"experiment","subject":"N0V08","internal_node_id":"0.0-10.0","time_elapsed":882276,"trial_index":36,"trial_type":"single-stim","block":"scenario-draw","key_press":13,"stimulus":"img/jones.png","rt":10782},{"condition":0,"session":"india","experiment":"experiment","subject":"N0V08","internal_node_id":"0.0-11.0","time_elapsed":905453,"trial_index":37,"trial_type":"html","block":"instructions_drawing","url":"../views/src/external/instructions_draw.html","rt":22084},{"block":"drawingTest","clicked":[["answer","clicked"]],"answer":["C1"],"correct":1,"scaffold":"none","question":"duration","scenario":"jones","graph":"none","condition":0,"session":"india","experiment":"experiment","subject":"N0V08","internal_node_id":"0.0-12.0","time_elapsed":1222612,"trial_index":38,"trial_type":"html","url":"../views/src/external/stimulus.html","rt":315841},{"block":"drawingTest","clicked":[["answer","clicked"]],"answer":["Chris","3-4pm"],"correct":1,"scaffold":"none","question":"overlap","scenario":"jones","graph":"none","condition":0,"session":"india","experiment":"experiment","subject":"N0V08","internal_node_id":"0.0-13.0","time_elapsed":1262975,"trial_index":39,"trial_type":"html","url":"../views/src/external/stimulus.html","rt":38759},{"condition":0,"session":"india","experiment":"experiment","subject":"N0V08","internal_node_id":"0.0-14.0","time_elapsed":1277465,"trial_index":40,"trial_type":"survey-text","block":"demo-1","responses":"{\"Q0\":\"18\",\"Q1\":\"UNITED STATES OF AMERICA\"}","rt":13483},{"condition":0,"session":"india","experiment":"experiment","subject":"N0V08","internal_node_id":"0.0-15.0","time_elapsed":1298063,"trial_index":41,"trial_type":"survey-multi-choice","block":"demo-2","responses":"{\"Q0\":\"Other\",\"Q1\":\"First\",\"Q2\":\"Biomedical \u0026 Health Sciences\",\"Q3\":\"Female\",\"Q4\":\"the second one (triangular)\"}","rt":19579},{"condition":0,"session":"india","experiment":"experiment","subject":"N0V08","internal_node_id":"0.0-16.0","time_elapsed":1314584,"trial_index":42,"trial_type":"html","block":"debrief","url":"../views/src/external/debrief.html","rt":15339}],"__v":0}
{"_id":{"$oid":"58c30d5b0393500004892658"},"data":[{"condition":4,"session":"india","experiment":"reverse","subject":"F8PZP","internal_node_id":"0.0-0.0","time_elapsed":27333,"trial_index":0,"trial_type":"single-stim","block":"phone","key_press":32,"stimulus":"img/phone.png","rt":27326},{"condition":4,"session":"india","experiment":"reverse","subject":"F8PZP","internal_node_id":"0.0-1.0","time_elapsed":48798,"trial_index":1,"trial_type":"html","block":"consent","url":"../views/src/external/consent.html","rt":20301},{"condition":4,"session":"india","experiment":"reverse","subject":"F8PZP","internal_node_id":"0.0-2.0","time_elapsed":61895,"trial_index":2,"trial_type":"survey-text","block":"codes","responses":"{\"Q0\":\"INDIA\",\"Q1\":\"4\"}","rt":12089},{"condition":4,"session":"india","experiment":"reverse","subject":"F8PZP","internal_node_id":"0.0-3.0","time_elapsed":71574,"trial_index":3,"trial_type":"html","block":"instructions_lab","url":"../views/src/external/instructions_lab.html","rt":8489},{"condition":4,"session":"india","experiment":"reverse","subject":"F8PZP","internal_node_id":"0.0-4.0","time_elapsed":78770,"trial_index":4,"trial_type":"single-stim","block":"scenario-two","key_press":32,"stimulus":"img/axis.png","rt":6193},{"block":"triangular_scaffolded","helps":0,"clicked":[["answer","clicked"],["M ","false"],["B ","false"],["J ","false"],["N ","false"],["D ","false"],["O ","false"],["K ","false"],["C ","false"],["F ","false"],["I ","false"],["H ","false"],["G ","false"],["L ","false"],["E ","false"],["A ","false"]],"answer":["H","O"],"correct":1,"scaffold":"show-interactive","question":"start","scenario":"axis","graph":"triangular","condition":4,"session":"india","experiment":"reverse","subject":"F8PZP","internal_node_id":"0.0-5.0-0.0","time_elapsed":151912,"trial_index":5,"trial_type":"html","url":"../views/src/external/stimulus.html","rt":71678},{"block":"triangular_scaffolded","helps":0,"clicked":[["answer","clicked"],["M ","false"],["B ","false"],["J ","false"],["N ","false"],["D ","false"],["O ","false"],["K ","false"],["C ","false"],["F ","false"],["I ","false"],["H ","false"],["G ","false"],["L ","false"],["E ","false"],["A ","false"]],"answer":["4"],"correct":1,"scaffold":"show-interactive","question":"end","scenario":"axis","graph":"triangular","condition":4,"session":"india","experiment":"reverse","subject":"F8PZP","internal_node_id":"0.0-5.0-1.0","time_elapsed":160735,"trial_index":6,"trial_type":"html","url":"../views/src/external/stimulus.html","rt":7491},{"block":"triangular_scaffolded","helps":0,"clicked":[["answer","clicked"],["M ","false"],["B ","false"],["J ","false"],["N ","false"],["D ","false"],["O ","false"],["K ","false"],["C ","false"],["F ","false"],["I ","false"],["H ","false"],["G ","false"],["L ","false"],["E ","false"],["A ","false"]],"answer":["A","C","E","F","G","I","K","L"],"correct":0,"scaffold":"show-interactive","question":"duration","scenario":"axis","graph":"triangular","condition":4,"session":"india","experiment":"reverse","subject":"F8PZP","internal_node_id":"0.0-5.0-2.0","time_elapsed":210575,"trial_index":7,"trial_type":"html","url":"../views/src/external/stimulus.html","rt":48587},{"block":"triangular_scaffolded","helps":0,"clicked":[["answer","clicked"],["M ","false"],["B ","false"],["J ","false"],["N ","false"],["D ","false"],["O ","false"],["K ","false"],["C ","false"],["F ","false"],["I ","false"],["H ","false"],["G ","false"],["L ","false"],["E ","false"],["A ","false"]],"answer":["8"],"correct":1,"scaffold":"show-interactive","question":"midpoint","scenario":"axis","graph":"triangular","condition":4,"session":"india","experiment":"reverse","subject":"F8PZP","internal_node_id":"0.0-5.0-3.0","time_elapsed":237552,"trial_index":8,"trial_type":"html","url":"../views/src/external/stimulus.html","rt":25723},{"block":"triangular_scaffolded","helps":0,"clicked":[["answer","clicked"],["M ","false"],["B ","false"],["J ","false"],["N ","false"],["D ","false"],["O ","false"],["K ","false"],["C ","false"],["F ","false"],["I ","false"],["H ","false"],["G ","false"],["L ","false"],["E ","false"],["A ","false"]],"answer":["7"],"correct":1,"scaffold":"show-interactive","question":"start+overlap","scenario":"axis","graph":"triangular","condition":4,"session":"india","experiment":"reverse","subject":"F8PZP","internal_node_id":"0.0-5.0-4.0","time_elapsed":266964,"trial_index":9,"trial_type":"html","url":"../views/src/external/stimulus.html","rt":28160},{"block":"triangular_testing","helps":0,"answer":["6"],"clicked":[["answer","clicked"],["M ","false"],["B ","false"],["J ","false"],["N ","false"],["D ","false"],["O ","false"],["K ","false"],["C ","false"],["F ","false"],["I ","false"],["H ","false"],["G ","false"],["L ","false"],["E ","false"],["A ","false"]],"correct":1,"scaffold":"none","question":"starts","scenario":"axis","graph":"triangular","condition":4,"session":"india","experiment":"reverse","subject":"F8PZP","internal_node_id":"0.0-6.0-5.0","time_elapsed":307418,"trial_index":10,"trial_type":"html","url":"../views/src/external/stimulus.html","rt":39198},{"block":"triangular_testing","helps":0,"answer":["M","N","O"],"clicked":[["answer","clicked"],["M ","false"],["B ","false"],["J ","false"],["N ","false"],["D ","false"],["O ","false"],["K ","false"],["C ","false"],["F ","false"],["I ","false"],["H ","false"],["G ","false"],["L ","false"],["E ","false"],["A ","false"]],"correct":0,"scaffold":"none","question":"contain+duration","scenario":"axis","graph":"triangular","condition":4,"session":"india","experiment":"reverse","subject":"F8PZP","internal_node_id":"0.0-6.0-4.0","time_elapsed":340012,"trial_index":11,"trial_type":"html","url":"../views/src/external/stimulus.html","rt":31328},{"block":"triangular_testing","helps":0,"answer":["G","O"],"clicked":[["answer","clicked"],["M ","false"],["B ","false"],["J ","false"],["N ","false"],["D ","false"],["O ","false"],["K ","false"],["C ","false"],["F ","false"],["I ","false"],["H ","false"],["G ","false"],["L ","false"],["E ","false"],["A ","false"]],"correct":1,"scaffold":"none","question":"finishes","scenario":"axis","graph":"triangular","condition":4,"session":"india","experiment":"reverse","subject":"F8PZP","internal_node_id":"0.0-6.0-6.0","time_elapsed":358363,"trial_index":12,"trial_type":"html","url":"../views/src/external/stimulus.html","rt":17092},{"block":"triangular_testing","helps":0,"answer":["M"],"clicked":[["answer","clicked"],["M ","false"],["B ","false"],["J ","false"],["N ","false"],["D ","false"],["O ","false"],["K ","false"],["C ","false"],["F ","false"],["I ","false"],["H ","false"],["G ","false"],["L ","false"],["E ","false"],["A ","false"]],"correct":0,"scaffold":"none","question":"during","scenario":"axis","graph":"triangular","condition":4,"session":"india","experiment":"reverse","subject":"F8PZP","internal_node_id":"0.0-6.0-7.0","time_elapsed":372630,"trial_index":13,"trial_type":"html","url":"../views/src/external/stimulus.html","rt":13006},{"block":"triangular_testing","helps":0,"answer":["9"],"clicked":[["answer","clicked"],["M ","false"],["B ","false"],["J ","false"],["N ","false"],["D ","false"],["O ","false"],["K ","false"],["C ","false"],["F ","false"],["I ","false"],["H ","false"],["G ","false"],["L ","false"],["E ","false"],["A ","false"]],"correct":1,"scaffold":"none","question":"start+duration","scenario":"axis","graph":"triangular","condition":4,"session":"india","experiment":"reverse","subject":"F8PZP","internal_node_id":"0.0-6.0-0.0","time_elapsed":387796,"trial_index":14,"trial_type":"html","url":"../views/src/external/stimulus.html","rt":13904},{"block":"triangular_testing","helps":0,"answer":["A"],"clicked":[["answer","clicked"],["M ","false"],["B ","false"],["J ","false"],["N ","false"],["D ","false"],["O ","false"],["K ","false"],["C ","false"],["F ","false"],["I ","false"],["H ","false"],["G ","false"],["L ","false"],["E ","false"],["A ","false"]],"correct":1,"scaffold":"none","question":"during+overlap","scenario":"axis","graph":"triangular","condition":4,"session":"india","experiment":"reverse","subject":"F8PZP","internal_node_id":"0.0-6.0-3.0","time_elapsed":406639,"trial_index":15,"trial_type":"html","url":"../views/src/external/stimulus.html","rt":17587},{"block":"triangular_testing","helps":0,"answer":["G"],"clicked":[["answer","clicked"],["M ","false"],["B ","false"],["J ","false"],["N ","false"],["D ","false"],["O ","false"],["K ","false"],["C ","false"],["F ","false"],["I ","false"],["H ","false"],["G ","false"],["L ","false"],["E ","false"],["A ","false"]],"correct":1,"scaffold":"none","question":"meets","scenario":"axis","graph":"triangular","condition":4,"session":"india","experiment":"reverse","subject":"F8PZP","internal_node_id":"0.0-6.0-8.0","time_elapsed":434475,"trial_index":16,"trial_type":"html","url":"../views/src/external/stimulus.html","rt":26582},{"block":"triangular_testing","helps":0,"answer":["G"],"clicked":[["answer","clicked"],["M ","false"],["B ","false"],["J ","false"],["N ","false"],["D ","false"],["O ","false"],["K ","false"],["C ","false"],["F ","false"],["I ","false"],["H ","false"],["G ","false"],["L ","false"],["E ","false"],["A ","false"]],"correct":1,"scaffold":"none","question":"starts+finishes","scenario":"axis","graph":"triangular","condition":4,"session":"india","experiment":"reverse","subject":"F8PZP","internal_node_id":"0.0-6.0-9.0","time_elapsed":446747,"trial_index":17,"trial_type":"html","url":"../views/src/external/stimulus.html","rt":11014},{"block":"triangular_testing","helps":0,"answer":["B"],"clicked":[["answer","clicked"],["M ","false"],["B ","false"],["J ","false"],["N ","false"],["D ","false"],["O ","false"],["K ","false"],["C ","false"],["F ","false"],["I ","false"],["H ","false"],["G ","false"],["L ","false"],["E ","false"],["A ","false"]],"correct":0,"scaffold":"none","question":"overlap+overlap","scenario":"axis","graph":"triangular","condition":4,"session":"india","experiment":"reverse","subject":"F8PZP","internal_node_id":"0.0-6.0-2.0","time_elapsed":459394,"trial_index":18,"trial_type":"html","url":"../views/src/external/stimulus.html","rt":11391},{"block":"triangular_testing","helps":0,"answer":["A","C","F","G","O"],"clicked":[["answer","clicked"],["M ","false"],["B ","false"],["J ","false"],["N ","false"],["D ","false"],["O ","false"],["K ","false"],["C ","false"],["F ","false"],["I ","false"],["H ","false"],["G ","false"],["L ","false"],["E ","false"],["A ","false"]],"correct":0,"scaffold":"none","question":"before+overlap","scenario":"axis","graph":"triangular","condition":4,"session":"india","experiment":"reverse","subject":"F8PZP","internal_node_id":"0.0-6.0-1.0","time_elapsed":497948,"trial_index":19,"trial_type":"html","url":"../views/src/external/stimulus.html","rt":37304},{"condition":4,"session":"india","experiment":"reverse","subject":"F8PZP","internal_node_id":"0.0-7.0","time_elapsed":506473,"trial_index":20,"trial_type":"single-stim","block":"scenario-one","key_press":32,"stimulus":"img/longmire.png","rt":7519},{"block":"linear_scaffolded","helps":0,"clicked":[["answer","clicked"],["A ","false"],["M ","false"],["D ","false"],["N ","false"],["B ","false"],["F ","false"],["H ","false"],["G ","false"],["O ","false"],["C ","false"],["J ","false"],["I ","false"],["E ","false"],["L ","false"],["K ","false"]],"answer":["C","D","L"],"correct":1,"scaffold":"show-interactive","question":"start","scenario":"longmire","graph":"linear","condition":4,"session":"india","experiment":"reverse","subject":"F8PZP","internal_node_id":"0.0-8.0-0.0","time_elapsed":549685,"trial_index":21,"trial_type":"html","url":"../views/src/external/stimulus.html","rt":41948},{"block":"linear_scaffolded","helps":0,"clicked":[["answer","clicked"],["A ","false"],["M ","false"],["D ","false"],["N ","false"],["B ","false"],["F ","false"],["H ","false"],["G ","false"],["O ","false"],["C ","false"],["J ","false"],["I ","false"],["E ","false"],["L ","false"],["K ","false"]],"answer":["F","J","K","L","M","N","O"],"correct":0,"scaffold":"show-interactive","question":"end","scenario":"longmire","graph":"linear","condition":4,"session":"india","experiment":"reverse","subject":"F8PZP","internal_node_id":"0.0-8.0-1.0","time_elapsed":584199,"trial_index":22,"trial_type":"html","url":"../views/src/external/stimulus.html","rt":33253},{"block":"linear_scaffolded","helps":0,"clicked":[["answer","clicked"],["A ","false"],["M ","false"],["D ","false"],["N ","false"],["B ","false"],["F ","false"],["H ","false"],["G ","false"],["O ","false"],["C ","false"],["J ","false"],["I ","false"],["E ","false"],["L ","false"],["K ","false"]],"answer":["G","O"],"correct":1,"scaffold":"show-interactive","question":"duration","scenario":"longmire","graph":"linear","condition":4,"session":"india","experiment":"reverse","subject":"F8PZP","internal_node_id":"0.0-8.0-2.0","time_elapsed":603294,"trial_index":23,"trial_type":"html","url":"../views/src/external/stimulus.html","rt":17847},{"block":"linear_scaffolded","helps":0,"clicked":[["answer","clicked"],["A ","false"],["M ","false"],["D ","false"],["N ","false"],["B ","false"],["F ","false"],["H ","false"],["G ","false"],["O ","false"],["C ","false"],["J ","false"],["I ","false"],["E ","false"],["L ","false"],["K ","false"]],"answer":["1"],"correct":1,"scaffold":"show-interactive","question":"midpoint","scenario":"longmire","graph":"linear","condition":4,"session":"india","experiment":"reverse","subject":"F8PZP","internal_node_id":"0.0-8.0-3.0","time_elapsed":618530,"trial_index":24,"trial_type":"html","url":"../views/src/external/stimulus.html","rt":13731},{"block":"linear_scaffolded","helps":0,"clicked":[["answer","clicked"],["A ","false"],["M ","false"],["D ","false"],["N ","false"],["B ","false"],["F ","false"],["H ","false"],["G ","false"],["O ","false"],["C ","false"],["J ","false"],["I ","false"],["E ","false"],["L ","false"],["K ","false"]],"answer":["A"],"correct":1,"scaffold":"show-interactive","question":"start+overlap","scenario":"longmire","graph":"linear","condition":4,"session":"india","experiment":"reverse","subject":"F8PZP","internal_node_id":"0.0-8.0-4.0","time_elapsed":631972,"trial_index":25,"trial_type":"html","url":"../views/src/external/stimulus.html","rt":12191},{"block":"linear_testing","helps":0,"clicked":[["answer","clicked"],["A ","false"],["M ","false"],["D ","false"],["N ","false"],["B ","false"],["F ","false"],["H ","false"],["G ","false"],["O ","false"],["C ","false"],["J ","false"],["I ","false"],["E ","false"],["L ","false"],["K ","false"]],"answer":["G","O"],"correct":1,"scaffold":"none","question":"contain+duration","scenario":"longmire","graph":"linear","condition":4,"session":"india","experiment":"reverse","subject":"F8PZP","internal_node_id":"0.0-9.0-4.0","time_elapsed":663155,"trial_index":26,"trial_type":"html","url":"../views/src/external/stimulus.html","rt":29922},{"block":"linear_testing","helps":0,"clicked":[["answer","clicked"],["A ","false"],["M ","false"],["D ","false"],["N ","false"],["B ","false"],["F ","false"],["H ","false"],["G ","false"],["O ","false"],["C ","false"],["J ","false"],["I ","false"],["E ","false"],["L ","false"],["K ","false"]],"answer":["A","F","M","N","O"],"correct":0,"scaffold":"none","question":"overlap+overlap","scenario":"longmire","graph":"linear","condition":4,"session":"india","experiment":"reverse","subject":"F8PZP","internal_node_id":"0.0-9.0-2.0","time_elapsed":694413,"trial_index":27,"trial_type":"html","url":"../views/src/external/stimulus.html","rt":30000},{"block":"linear_testing","helps":0,"clicked":[["answer","clicked"],["A ","true"],["M ","false"],["D ","true"],["N ","false"],["B ","true"],["F ","true"],["H ","false"],["G ","false"],["O ","false"],["C ","true"],["J ","false"],["I ","true"],["E ","false"],["L ","false"],["K ","false"]],"answer":["A","B","C","D","I"],"correct":0,"scaffold":"none","question":"before+overlap","scenario":"longmire","graph":"linear","condition":4,"session":"india","experiment":"reverse","subject":"F8PZP","internal_node_id":"0.0-9.0-1.0","time_elapsed":748270,"trial_index":28,"trial_type":"html","url":"../views/src/external/stimulus.html","rt":52600},{"block":"linear_testing","helps":0,"clicked":[["answer","clicked"],["A ","false"],["M ","false"],["D ","false"],["N ","false"],["B ","true"],["F ","false"],["H ","false"],["G ","false"],["O ","false"],["C ","false"],["J ","true"],["I ","false"],["E ","false"],["L ","false"],["K ","false"]],"answer":["J"],"correct":0,"scaffold":"none","question":"meets","scenario":"longmire","graph":"linear","condition":4,"session":"india","experiment":"reverse","subject":"F8PZP","internal_node_id":"0.0-9.0-8.0","time_elapsed":769447,"trial_index":29,"trial_type":"html","url":"../views/src/external/stimulus.html","rt":19915},{"block":"linear_testing","helps":0,"clicked":[["answer","clicked"],["A ","false"],["M ","false"],["D ","false"],["N ","false"],["B ","false"],["F ","false"],["H ","false"],["G ","false"],["O ","false"],["C ","true"],["J ","false"],["I ","true"],["E ","true"],["L ","true"],["K ","true"]],"answer":["C","E","I","K","L"],"correct":0,"scaffold":"none","question":"during+overlap","scenario":"longmire","graph":"linear","condition":4,"session":"india","experiment":"reverse","subject":"F8PZP","internal_node_id":"0.0-9.0-3.0","time_elapsed":812268,"trial_index":30,"trial_type":"html","url":"../views/src/external/stimulus.html","rt":41569},{"block":"linear_testing","helps":0,"clicked":[["answer","clicked"],["A ","true"],["M ","false"],["D ","true"],["N ","false"],["B ","false"],["F ","false"],["H ","false"],["G ","false"],["O ","false"],["C ","true"],["J ","false"],["I ","true"],["E ","false"],["L ","true"],["K ","true"]],"answer":["6","8"],"correct":1,"scaffold":"none","question":"starts","scenario":"longmire","graph":"linear","condition":4,"session":"india","experiment":"reverse","subject":"F8PZP","internal_node_id":"0.0-9.0-5.0","time_elapsed":865628,"trial_index":31,"trial_type":"html","url":"../views/src/external/stimulus.html","rt":52101},{"block":"linear_testing","helps":0,"clicked":[["answer","clicked"],["A ","false"],["M ","true"],["D ","false"],["N ","false"],["B ","false"],["F ","false"],["H ","true"],["G ","false"],["O ","true"],["C ","false"],["J ","true"],["I ","false"],["E ","false"],["L ","true"],["K ","true"]],"answer":["4","5"],"correct":1,"scaffold":"none","question":"finishes","scenario":"longmire","graph":"linear","condition":4,"session":"india","experiment":"reverse","subject":"F8PZP","internal_node_id":"0.0-9.0-6.0","time_elapsed":902647,"trial_index":32,"trial_type":"html","url":"../views/src/external/stimulus.html","rt":35755},{"block":"linear_testing","helps":0,"clicked":[["answer","clicked"],["A ","true"],["M ","false"],["D ","true"],["N ","false"],["B ","true"],["F ","true"],["H ","false"],["G ","false"],["O ","false"],["C ","false"],["J ","false"],["I ","false"],["E ","false"],["L ","false"],["K ","false"]],"answer":["A","B","D","F"],"correct":1,"scaffold":"none","question":"start+duration","scenario":"longmire","graph":"linear","condition":4,"session":"india","experiment":"reverse","subject":"F8PZP","internal_node_id":"0.0-9.0-0.0","time_elapsed":932956,"trial_index":33,"trial_type":"html","url":"../views/src/external/stimulus.html","rt":29056},{"block":"linear_testing","helps":0,"clicked":[["answer","clicked"],["A ","false"],["M ","false"],["D ","true"],["N ","false"],["B ","false"],["F ","true"],["H ","false"],["G ","true"],["O ","false"],["C ","true"],["J ","false"],["I ","false"],["E ","false"],["L ","false"],["K ","false"]],"answer":["C","D","G","H"],"correct":0,"scaffold":"none","question":"during","scenario":"longmire","graph":"linear","condition":4,"session":"india","experiment":"reverse","subject":"F8PZP","internal_node_id":"0.0-9.0-7.0","time_elapsed":1002397,"trial_index":34,"trial_type":"html","url":"../views/src/external/stimulus.html","rt":68182},{"block":"linear_testing","helps":0,"clicked":[["answer","clicked"],["A ","false"],["M ","false"],["D ","false"],["N ","false"],["B ","false"],["F ","false"],["H ","false"],["G ","false"],["O ","false"],["C ","true"],["J ","false"],["I ","false"],["E ","false"],["L ","false"],["K ","false"]],"answer":["C"],"correct":1,"scaffold":"none","question":"starts+finishes","scenario":"longmire","graph":"linear","condition":4,"session":"india","experiment":"reverse","subject":"F8PZP","internal_node_id":"0.0-9.0-9.0","time_elapsed":1027388,"trial_index":35,"trial_type":"html","url":"../views/src/external/stimulus.html","rt":23567},{"condition":4,"session":"india","experiment":"reverse","subject":"F8PZP","internal_node_id":"0.0-10.0","time_elapsed":1037491,"trial_index":36,"trial_type":"single-stim","block":"scenario-draw","key_press":32,"stimulus":"img/jones.png","rt":9097},{"condition":4,"session":"india","experiment":"reverse","subject":"F8PZP","internal_node_id":"0.0-11.0","time_elapsed":1230344,"trial_index":37,"trial_type":"html","block":"instructions_drawing","url":"../views/src/external/instructions_draw.html","rt":191704},{"block":"drawingTest","clicked":[["answer","clicked"]],"answer":["J4"],"correct":0,"scaffold":"none","question":"duration","scenario":"jones","graph":"none","condition":4,"session":"india","experiment":"reverse","subject":"F8PZP","internal_node_id":"0.0-12.0","time_elapsed":1263225,"trial_index":38,"trial_type":"html","url":"../views/src/external/stimulus.html","rt":31455},{"block":"drawingTest","clicked":[["answer","clicked"]],"answer":["Bahar","1-3pm"],"correct":0,"scaffold":"none","question":"overlap","scenario":"jones","graph":"none","condition":4,"session":"india","experiment":"reverse","subject":"F8PZP","internal_node_id":"0.0-13.0","time_elapsed":1306772,"trial_index":39,"trial_type":"html","url":"../views/src/external/stimulus.html","rt":42304},{"condition":4,"session":"india","experiment":"reverse","subject":"F8PZP","internal_node_id":"0.0-14.0","time_elapsed":1317956,"trial_index":40,"trial_type":"survey-text","block":"demo-1","responses":"{\"Q0\":\"20\",\"Q1\":\"Pakistan\"}","rt":10177},{"condition":4,"session":"india","experiment":"reverse","subject":"F8PZP","internal_node_id":"0.0-15.0","time_elapsed":1338725,"trial_index":41,"trial_type":"survey-multi-choice","block":"demo-2","responses":"{\"Q0\":\"Other\",\"Q1\":\"Third\",\"Q2\":\"Biomedical \u0026 Health Sciences\",\"Q3\":\"Female\",\"Q4\":\"the first one (linear\"}","rt":19753},{"condition":4,"session":"india","experiment":"reverse","subject":"F8PZP","internal_node_id":"0.0-16.0","time_elapsed":1346061,"trial_index":42,"trial_type":"html","block":"debrief","url":"../views/src/external/debrief.html","rt":6094}],"__v":0}
{"_id":{"$oid":"58c30e130393500004892659"},"data":[{"condition":2,"session":"india","experiment":"experiment","subject":"VEL2Z","internal_node_id":"0.0-0.0","time_elapsed":46614,"trial_index":0,"trial_type":"single-stim","block":"phone","key_press":13,"stimulus":"img/phone.png","rt":46605},{"condition":2,"session":"india","experiment":"experiment","subject":"VEL2Z","internal_node_id":"0.0-1.0","time_elapsed":52065,"trial_index":1,"trial_type":"html","block":"consent","url":"../views/src/external/consent.html","rt":4347},{"condition":2,"session":"india","experiment":"experiment","subject":"VEL2Z","internal_node_id":"0.0-2.0","time_elapsed":68102,"trial_index":2,"trial_type":"survey-text","block":"codes","responses":"{\"Q0\":\"INDIA\",\"Q1\":\"2\"}","rt":15024},{"condition":2,"session":"india","experiment":"experiment","subject":"VEL2Z","internal_node_id":"0.0-3.0","time_elapsed":86086,"trial_index":3,"trial_type":"html","block":"instructions_lab","url":"../views/src/external/instructions_lab.html","rt":16879},{"condition":2,"session":"india","experiment":"experiment","subject":"VEL2Z","internal_node_id":"0.0-4.0","time_elapsed":96114,"trial_index":4,"trial_type":"single-stim","block":"scenario-one","key_press":13,"stimulus":"img/axis.png","rt":9027},{"block":"linear_scaffolded","helps":0,"clicked":[["answer","clicked"],["M ","false"],["B ","false"],["J ","false"],["N ","false"],["D ","false"],["O ","true"],["K ","false"],["C ","false"],["F ","false"],["I ","false"],["H ","false"],["G ","false"],["L ","false"],["E ","false"],["A ","false"]],"answer":["H","O"],"correct":1,"scaffold":"describe-how","question":"start","scenario":"axis","graph":"linear","condition":2,"session":"india","experiment":"experiment","subject":"VEL2Z","internal_node_id":"0.0-5.0-0.0","time_elapsed":123470,"trial_index":5,"trial_type":"html","url":"../views/src/external/stimulus.html","rt":26012},{"block":"linear_scaffolded","helps":0,"clicked":[["answer","clicked"],["M ","false"],["B ","false"],["J ","false"],["N ","false"],["D ","false"],["O ","false"],["K ","false"],["C ","false"],["F ","false"],["I ","false"],["H ","false"],["G ","true"],["L ","false"],["E ","false"],["A ","false"]],"answer":["4"],"correct":1,"scaffold":"describe-how","question":"end","scenario":"axis","graph":"linear","condition":2,"session":"india","experiment":"experiment","subject":"VEL2Z","internal_node_id":"0.0-5.0-1.0","time_elapsed":134516,"trial_index":6,"trial_type":"html","url":"../views/src/external/stimulus.html","rt":9662},{"block":"linear_scaffolded","helps":0,"clicked":[["answer","clicked"],["M ","false"],["B ","false"],["J ","false"],["N ","false"],["D ","false"],["O ","false"],["K ","true"],["C ","true"],["F ","true"],["I ","true"],["H ","true"],["G ","true"],["L ","true"],["E ","true"],["A ","true"]],"answer":["A","C","E","F","G","H","K","L"],"correct":0,"scaffold":"describe-how","question":"duration","scenario":"axis","graph":"linear","condition":2,"session":"india","experiment":"experiment","subject":"VEL2Z","internal_node_id":"0.0-5.0-2.0","time_elapsed":184764,"trial_index":7,"trial_type":"html","url":"../views/src/external/stimulus.html","rt":48755},{"block":"linear_scaffolded","helps":0,"clicked":[["answer","clicked"],["M ","false"],["B ","false"],["J ","false"],["N ","false"],["D ","false"],["O ","false"],["K ","false"],["C ","false"],["F ","false"],["I ","false"],["H ","false"],["G ","false"],["L ","false"],["E ","false"],["A ","false"]],"answer":["8"],"correct":1,"scaffold":"describe-how","question":"midpoint","scenario":"axis","graph":"linear","condition":2,"session":"india","experiment":"experiment","subject":"VEL2Z","internal_node_id":"0.0-5.0-3.0","time_elapsed":269545,"trial_index":8,"trial_type":"html","url":"../views/src/external/stimulus.html","rt":83506},{"block":"linear_scaffolded","helps":0,"clicked":[["answer","clicked"],["M ","false"],["B ","false"],["J ","false"],["N ","false"],["D ","false"],["O ","false"],["K ","false"],["C ","false"],["F ","false"],["I ","false"],["H ","true"],["G ","true"],["L ","false"],["E ","false"],["A ","false"]],"answer":["7"],"correct":1,"scaffold":"describe-how","question":"start+overlap","scenario":"axis","graph":"linear","condition":2,"session":"india","experiment":"experiment","subject":"VEL2Z","internal_node_id":"0.0-5.0-4.0","time_elapsed":301346,"trial_index":9,"trial_type":"html","url":"../views/src/external/stimulus.html","rt":30370},{"block":"linear_testing","helps":0,"clicked":[["answer","clicked"],["M ","false"],["B ","false"],["J ","false"],["N ","false"],["D ","false"],["O ","false"],["K ","false"],["C ","false"],["F ","false"],["I ","false"],["H ","false"],["G ","false"],["L ","false"],["E ","false"],["A ","false"]],"answer":["G","O"],"correct":1,"scaffold":"none","question":"finishes","scenario":"axis","graph":"linear","condition":2,"session":"india","experiment":"experiment","subject":"VEL2Z","internal_node_id":"0.0-6.0-6.0","time_elapsed":313045,"trial_index":10,"trial_type":"html","url":"../views/src/external/stimulus.html","rt":10358},{"block":"linear_testing","helps":0,"clicked":[["answer","clicked"],["M ","true"],["B ","false"],["J ","false"],["N ","false"],["D ","false"],["O ","true"],["K ","false"],["C ","false"],["F ","true"],["I ","false"],["H ","false"],["G ","false"],["L ","false"],["E ","false"],["A ","false"]],"answer":["F","M","O"],"correct":1,"scaffold":"none","question":"during","scenario":"axis","graph":"linear","condition":2,"session":"india","experiment":"experiment","subject":"VEL2Z","internal_node_id":"0.0-6.0-7.0","time_elapsed":339757,"trial_index":11,"trial_type":"html","url":"../views/src/external/stimulus.html","rt":25458},{"block":"linear_testing","helps":0,"clicked":[["answer","clicked"],["M ","false"],["B ","false"],["J ","false"],["N ","false"],["D ","false"],["O ","false"],["K ","false"],["C ","false"],["F ","true"],["I ","false"],["H ","false"],["G ","false"],["L ","false"],["E ","false"],["A ","false"]],"answer":["A"],"correct":1,"scaffold":"none","question":"during+overlap","scenario":"axis","graph":"linear","condition":2,"session":"india","experiment":"experiment","subject":"VEL2Z","internal_node_id":"0.0-6.0-3.0","time_elapsed":369493,"trial_index":12,"trial_type":"html","url":"../views/src/external/stimulus.html","rt":28430},{"block":"linear_testing","helps":0,"clicked":[["answer","clicked"],["M ","false"],["B ","false"],["J ","false"],["N ","false"],["D ","false"],["O ","false"],["K ","false"],["C ","false"],["F ","false"],["I ","false"],["H ","false"],["G ","false"],["L ","false"],["E ","false"],["A ","false"]],"answer":["6"],"correct":1,"scaffold":"none","question":"starts","scenario":"axis","graph":"linear","condition":2,"session":"india","experiment":"experiment","subject":"VEL2Z","internal_node_id":"0.0-6.0-5.0","time_elapsed":415879,"trial_index":13,"trial_type":"html","url":"../views/src/external/stimulus.html","rt":45126},{"block":"linear_testing","helps":0,"clicked":[["answer","clicked"],["M ","false"],["B ","false"],["J ","false"],["N ","false"],["D ","false"],["O ","false"],["K ","true"],["C ","false"],["F ","false"],["I ","true"],["H ","false"],["G ","false"],["L ","false"],["E ","false"],["A ","false"]],"answer":["A","B","C","E","F","J"],"correct":0,"scaffold":"none","question":"overlap+overlap","scenario":"axis","graph":"linear","condition":2,"session":"india","experiment":"experiment","subject":"VEL2Z","internal_node_id":"0.0-6.0-2.0","time_elapsed":449362,"trial_index":14,"trial_type":"html","url":"../views/src/external/stimulus.html","rt":32231},{"block":"linear_testing","helps":0,"clicked":[["answer","clicked"],["M ","false"],["B ","false"],["J ","false"],["N ","true"],["D ","false"],["O ","false"],["K ","true"],["C ","false"],["F ","false"],["I ","false"],["H ","false"],["G ","false"],["L ","false"],["E ","false"],["A ","false"]],"answer":["F","G","M","O"],"correct":0,"scaffold":"none","question":"meets","scenario":"axis","graph":"linear","condition":2,"session":"india","experiment":"experiment","subject":"VEL2Z","internal_node_id":"0.0-6.0-8.0","time_elapsed":487609,"trial_index":15,"trial_type":"html","url":"../views/src/external/stimulus.html","rt":36992},{"block":"linear_testing","helps":0,"clicked":[["answer","clicked"],["M ","false"],["B ","false"],["J ","false"],["N ","false"],["D ","false"],["O ","true"],["K ","false"],["C ","false"],["F ","true"],["I ","false"],["H ","false"],["G ","false"],["L ","false"],["E ","false"],["A ","false"]],"answer":["G"],"correct":1,"scaffold":"none","question":"starts+finishes","scenario":"axis","graph":"linear","condition":2,"session":"india","experiment":"experiment","subject":"VEL2Z","internal_node_id":"0.0-6.0-9.0","time_elapsed":514806,"trial_index":16,"trial_type":"html","url":"../views/src/external/stimulus.html","rt":25951},{"block":"linear_testing","helps":0,"clicked":[["answer","clicked"],["M ","false"],["B ","false"],["J ","false"],["N ","true"],["D ","false"],["O ","false"],["K ","true"],["C ","false"],["F ","false"],["I ","false"],["H ","false"],["G ","false"],["L ","false"],["E ","false"],["A ","false"]],"answer":["F","M","O"],"correct":0,"scaffold":"none","question":"before+overlap","scenario":"axis","graph":"linear","condition":2,"session":"india","experiment":"experiment","subject":"VEL2Z","internal_node_id":"0.0-6.0-1.0","time_elapsed":542115,"trial_index":17,"trial_type":"html","url":"../views/src/external/stimulus.html","rt":26063},{"block":"linear_testing","helps":0,"clicked":[["answer","clicked"],["M ","false"],["B ","false"],["J ","false"],["N ","false"],["D ","false"],["O ","false"],["K ","false"],["C ","false"],["F ","false"],["I ","false"],["H ","false"],["G ","false"],["L ","true"],["E ","false"],["A ","false"]],"answer":["D","M","N","O"],"correct":1,"scaffold":"none","question":"contain+duration","scenario":"axis","graph":"linear","condition":2,"session":"india","experiment":"experiment","subject":"VEL2Z","internal_node_id":"0.0-6.0-4.0","time_elapsed":570459,"trial_index":18,"trial_type":"html","url":"../views/src/external/stimulus.html","rt":27093},{"block":"linear_testing","helps":0,"clicked":[["answer","clicked"],["M ","false"],["B ","true"],["J ","true"],["N ","false"],["D ","false"],["O ","false"],["K ","false"],["C ","false"],["F ","false"],["I ","false"],["H ","false"],["G ","false"],["L ","false"],["E ","false"],["A ","false"]],"answer":["9"],"correct":1,"scaffold":"none","question":"start+duration","scenario":"axis","graph":"linear","condition":2,"session":"india","experiment":"experiment","subject":"VEL2Z","internal_node_id":"0.0-6.0-0.0","time_elapsed":592728,"trial_index":19,"trial_type":"html","url":"../views/src/external/stimulus.html","rt":21003},{"condition":2,"session":"india","experiment":"experiment","subject":"VEL2Z","internal_node_id":"0.0-7.0","time_elapsed":606572,"trial_index":20,"trial_type":"single-stim","block":"scenario-two","key_press":13,"stimulus":"img/longmire.png","rt":12838},{"block":"triangular_scaffolded","helps":0,"clicked":[["answer","clicked"],["A ","false"],["M ","false"],["D ","false"],["N ","false"],["B ","false"],["F ","false"],["H ","false"],["G ","false"],["O ","false"],["C ","false"],["J ","false"],["I ","false"],["E ","false"],["L ","false"],["K ","false"]],"answer":["C","D","L"],"correct":1,"scaffold":"describe-how","question":"start","scenario":"longmire","graph":"triangular","condition":2,"session":"india","experiment":"experiment","subject":"VEL2Z","internal_node_id":"0.0-8.0-0.0","time_elapsed":638553,"trial_index":21,"trial_type":"html","url":"../views/src/external/stimulus.html","rt":30724},{"block":"triangular_scaffolded","helps":0,"clicked":[["answer","clicked"],["A ","false"],["M ","false"],["D ","false"],["N ","false"],["B ","false"],["F ","false"],["H ","false"],["G ","false"],["O ","false"],["C ","false"],["J ","false"],["I ","false"],["E ","false"],["L ","false"],["K ","false"]],"answer":["M","N"],"correct":0,"scaffold":"describe-how","question":"end","scenario":"longmire","graph":"triangular","condition":2,"session":"india","experiment":"experiment","subject":"VEL2Z","internal_node_id":"0.0-8.0-1.0","time_elapsed":667258,"trial_index":22,"trial_type":"html","url":"../views/src/external/stimulus.html","rt":27443},{"block":"triangular_scaffolded","helps":0,"clicked":[["answer","clicked"],["A ","false"],["M ","false"],["D ","false"],["N ","false"],["B ","false"],["F ","false"],["H ","false"],["G ","false"],["O ","false"],["C ","false"],["J ","false"],["I ","false"],["E ","false"],["L ","false"],["K ","false"]],"answer":["G","O"],"correct":1,"scaffold":"describe-how","question":"duration","scenario":"longmire","graph":"triangular","condition":2,"session":"india","experiment":"experiment","subject":"VEL2Z","internal_node_id":"0.0-8.0-2.0","time_elapsed":684212,"trial_index":23,"trial_type":"html","url":"../views/src/external/stimulus.html","rt":15697},{"block":"triangular_scaffolded","helps":0,"clicked":[["answer","clicked"],["A ","false"],["M ","false"],["D ","false"],["N ","false"],["B ","false"],["F ","false"],["H ","false"],["G ","false"],["O ","false"],["C ","false"],["J ","false"],["I ","false"],["E ","false"],["L ","false"],["K ","false"]],"answer":["1"],"correct":1,"scaffold":"describe-how","question":"midpoint","scenario":"longmire","graph":"triangular","condition":2,"session":"india","experiment":"experiment","subject":"VEL2Z","internal_node_id":"0.0-8.0-3.0","time_elapsed":704957,"trial_index":24,"trial_type":"html","url":"../views/src/external/stimulus.html","rt":19495},{"block":"triangular_scaffolded","helps":0,"clicked":[["answer","clicked"],["A ","false"],["M ","false"],["D ","false"],["N ","false"],["B ","false"],["F ","false"],["H ","false"],["G ","false"],["O ","false"],["C ","false"],["J ","false"],["I ","false"],["E ","false"],["L ","false"],["K ","false"]],"answer":["A"],"correct":1,"scaffold":"describe-how","question":"start+overlap","scenario":"longmire","graph":"triangular","condition":2,"session":"india","experiment":"experiment","subject":"VEL2Z","internal_node_id":"0.0-8.0-4.0","time_elapsed":723228,"trial_index":25,"trial_type":"html","url":"../views/src/external/stimulus.html","rt":17021},{"block":"triangular_testing","helps":0,"answer":["K","L"],"clicked":[["answer","clicked"],["A ","false"],["M ","false"],["D ","true"],["N ","false"],["B ","false"],["F ","false"],["H ","true"],["G ","false"],["O ","false"],["C ","false"],["J ","false"],["I ","false"],["E ","false"],["L ","true"],["K ","false"]],"correct":1,"scaffold":"none","question":"during+overlap","scenario":"longmire","graph":"triangular","condition":2,"session":"india","experiment":"experiment","subject":"VEL2Z","internal_node_id":"0.0-9.0-3.0","time_elapsed":760279,"trial_index":26,"trial_type":"html","url":"../views/src/external/stimulus.html","rt":35804},{"block":"triangular_testing","helps":0,"answer":["C"],"clicked":[["answer","clicked"],["A ","false"],["M ","false"],["D ","true"],["N ","false"],["B ","false"],["F ","false"],["H ","false"],["G ","false"],["O ","false"],["C ","false"],["J ","false"],["I ","true"],["E ","false"],["L ","false"],["K ","false"]],"correct":1,"scaffold":"none","question":"starts+finishes","scenario":"longmire","graph":"triangular","condition":2,"session":"india","experiment":"experiment","subject":"VEL2Z","internal_node_id":"0.0-9.0-9.0","time_elapsed":776121,"trial_index":27,"trial_type":"html","url":"../views/src/external/stimulus.html","rt":14592},{"block":"triangular_testing","helps":0,"answer":["A","M","N"],"clicked":[["answer","clicked"],["A ","false"],["M ","false"],["D ","true"],["N ","false"],["B ","false"],["F ","false"],["H ","true"],["G ","false"],["O ","false"],["C ","false"],["J ","false"],["I ","false"],["E ","false"],["L ","false"],["K ","false"]],"correct":1,"scaffold":"none","question":"overlap+overlap","scenario":"longmire","graph":"triangular","condition":2,"session":"india","experiment":"experiment","subject":"VEL2Z","internal_node_id":"0.0-9.0-2.0","time_elapsed":811684,"trial_index":28,"trial_type":"html","url":"../views/src/external/stimulus.html","rt":34317},{"block":"triangular_testing","helps":0,"answer":["4","5"],"clicked":[["answer","clicked"],["A ","false"],["M ","false"],["D ","false"],["N ","false"],["B ","false"],["F ","false"],["H ","false"],["G ","false"],["O ","false"],["C ","false"],["J ","false"],["I ","false"],["E ","false"],["L ","false"],["K ","false"]],"correct":1,"scaffold":"none","question":"finishes","scenario":"longmire","graph":"triangular","condition":2,"session":"india","experiment":"experiment","subject":"VEL2Z","internal_node_id":"0.0-9.0-6.0","time_elapsed":833188,"trial_index":29,"trial_type":"html","url":"../views/src/external/stimulus.html","rt":20246},{"block":"triangular_testing","helps":0,"answer":["A","B","C","D","F","I"],"clicked":[["answer","clicked"],["A ","false"],["M ","false"],["D ","false"],["N ","true"],["B ","false"],["F ","false"],["H ","true"],["G ","false"],["O ","false"],["C ","false"],["J ","false"],["I ","false"],["E ","false"],["L ","false"],["K ","false"]],"correct":1,"scaffold":"none","question":"before+overlap","scenario":"longmire","graph":"triangular","condition":2,"session":"india","experiment":"experiment","subject":"VEL2Z","internal_node_id":"0.0-9.0-1.0","time_elapsed":870837,"trial_index":30,"trial_type":"html","url":"../views/src/external/stimulus.html","rt":36362},{"block":"triangular_testing","helps":0,"answer":["O"],"clicked":[["answer","clicked"],["A ","false"],["M ","false"],["D ","false"],["N ","false"],["B ","false"],["F ","true"],["H ","false"],["G ","false"],["O ","false"],["C ","false"],["J ","false"],["I ","false"],["E ","false"],["L ","false"],["K ","false"]],"correct":1,"scaffold":"none","question":"meets","scenario":"longmire","graph":"triangular","condition":2,"session":"india","experiment":"experiment","subject":"VEL2Z","internal_node_id":"0.0-9.0-8.0","time_elapsed":882779,"trial_index":31,"trial_type":"html","url":"../views/src/external/stimulus.html","rt":10687},{"block":"triangular_testing","helps":0,"answer":["6","8"],"clicked":[["answer","clicked"],["A ","false"],["M ","false"],["D ","false"],["N ","false"],["B ","false"],["F ","false"],["H ","false"],["G ","false"],["O ","false"],["C ","false"],["J ","false"],["I ","false"],["E ","false"],["L ","false"],["K ","false"]],"correct":1,"scaffold":"none","question":"starts","scenario":"longmire","graph":"triangular","condition":2,"session":"india","experiment":"experiment","subject":"VEL2Z","internal_node_id":"0.0-9.0-5.0","time_elapsed":903575,"trial_index":32,"trial_type":"html","url":"../views/src/external/stimulus.html","rt":19549},{"block":"triangular_testing","helps":0,"answer":["B","C","D","F","G"],"clicked":[["answer","clicked"],["A ","false"],["M ","false"],["D ","false"],["N ","false"],["B ","false"],["F ","false"],["H ","false"],["G ","false"],["O ","false"],["C ","false"],["J ","false"],["I ","false"],["E ","true"],["L ","false"],["K ","false"]],"correct":1,"scaffold":"none","question":"during","scenario":"longmire","graph":"triangular","condition":2,"session":"india","experiment":"experiment","subject":"VEL2Z","internal_node_id":"0.0-9.0-7.0","time_elapsed":955822,"trial_index":33,"trial_type":"html","url":"../views/src/external/stimulus.html","rt":50993},{"block":"triangular_testing","helps":0,"answer":["G","O"],"clicked":[["answer","clicked"],["A ","false"],["M ","false"],["D ","false"],["N ","false"],["B ","false"],["F ","false"],["H ","false"],["G ","false"],["O ","false"],["C ","false"],["J ","true"],["I ","false"],["E ","false"],["L ","false"],["K ","false"]],"correct":1,"scaffold":"none","question":"contain+duration","scenario":"longmire","graph":"triangular","condition":2,"session":"india","experiment":"experiment","subject":"VEL2Z","internal_node_id":"0.0-9.0-4.0","time_elapsed":970862,"trial_index":34,"trial_type":"html","url":"../views/src/external/stimulus.html","rt":13783},{"block":"triangular_testing","helps":0,"answer":["A","B","D","F"],"clicked":[["answer","clicked"],["A ","false"],["M ","false"],["D ","false"],["N ","false"],["B ","false"],["F ","false"],["H ","false"],["G ","false"],["O ","false"],["C ","false"],["J ","false"],["I ","false"],["E ","false"],["L ","false"],["K ","false"]],"correct":1,"scaffold":"none","question":"start+duration","scenario":"longmire","graph":"triangular","condition":2,"session":"india","experiment":"experiment","subject":"VEL2Z","internal_node_id":"0.0-9.0-0.0","time_elapsed":991879,"trial_index":35,"trial_type":"html","url":"../views/src/external/stimulus.html","rt":19763},{"condition":2,"session":"india","experiment":"experiment","subject":"VEL2Z","internal_node_id":"0.0-10.0","time_elapsed":1010790,"trial_index":36,"trial_type":"single-stim","block":"scenario-draw","key_press":13,"stimulus":"img/jones.png","rt":17905},{"condition":2,"session":"india","experiment":"experiment","subject":"VEL2Z","internal_node_id":"0.0-11.0","time_elapsed":1343279,"trial_index":37,"trial_type":"html","block":"instructions_drawing","url":"../views/src/external/instructions_draw.html","rt":331389},{"block":"drawingTest","clicked":[["answer","clicked"]],"answer":["I4"],"correct":0,"scaffold":"none","question":"duration","scenario":"jones","graph":"none","condition":2,"session":"india","experiment":"experiment","subject":"VEL2Z","internal_node_id":"0.0-12.0","time_elapsed":1455661,"trial_index":38,"trial_type":"html","url":"../views/src/external/stimulus.html","rt":111031},{"block":"drawingTest","clicked":[["answer","clicked"]],"answer":["Chris","3-4pm"],"correct":1,"scaffold":"none","question":"overlap","scenario":"jones","graph":"none","condition":2,"session":"india","experiment":"experiment","subject":"VEL2Z","internal_node_id":"0.0-13.0","time_elapsed":1487082,"trial_index":39,"trial_type":"html","url":"../views/src/external/stimulus.html","rt":30066},{"condition":2,"session":"india","experiment":"experiment","subject":"VEL2Z","internal_node_id":"0.0-14.0","time_elapsed":1498072,"trial_index":40,"trial_type":"survey-text","block":"demo-1","responses":"{\"Q0\":\"21\",\"Q1\":\"United States\"}","rt":9984},{"condition":2,"session":"india","experiment":"experiment","subject":"VEL2Z","internal_node_id":"0.0-15.0","time_elapsed":1512380,"trial_index":41,"trial_type":"survey-multi-choice","block":"demo-2","responses":"{\"Q0\":\"English\",\"Q1\":\"Third\",\"Q2\":\"Social Sciences (incl. CogSci)\",\"Q3\":\"Female\",\"Q4\":\"the second one (triangular)\"}","rt":13285},{"condition":2,"session":"india","experiment":"experiment","subject":"VEL2Z","internal_node_id":"0.0-16.0","time_elapsed":1531107,"trial_index":42,"trial_type":"html","block":"debrief","url":"../views/src/external/debrief.html","rt":17635}],"__v":0}
