{"_id":{"$oid":"590a1b333fe54500043c3ceb"},"data":[{"condition":0,"session":"expert","experiment":"experiment","subject":"ZZTG2","internal_node_id":"0.0-0.0","time_elapsed":1027,"trial_index":0,"trial_type":"single-stim","block":"phone","key_press":32,"stimulus":"img/phone.png","rt":1020},{"condition":0,"session":"expert","experiment":"experiment","subject":"ZZTG2","internal_node_id":"0.0-1.0","time_elapsed":6238,"trial_index":1,"trial_type":"html","block":"consent","url":"../views/src/external/consent.html","rt":4111},{"condition":0,"session":"expert","experiment":"experiment","subject":"ZZTG2","internal_node_id":"0.0-2.0","time_elapsed":16603,"trial_index":2,"trial_type":"survey-text","block":"codes","responses":"{\"Q0\":\"expert\",\"Q1\":\"0\"}","rt":9347},{"condition":0,"session":"expert","experiment":"experiment","subject":"ZZTG2","internal_node_id":"0.0-3.0","time_elapsed":38420,"trial_index":3,"trial_type":"html","block":"instructions_lab","url":"../views/src/external/instructions_lab.html","rt":20715},{"condition":0,"session":"expert","experiment":"experiment","subject":"ZZTG2","internal_node_id":"0.0-4.0","time_elapsed":40548,"trial_index":4,"trial_type":"single-stim","block":"scenario-one","key_press":32,"stimulus":"img/longmire.png","rt":1126},{"block":"linear_scaffolded","helps":0,"clicked":[["answer","clicked"],["A ","false"],["M ","false"],["D ","false"],["N ","false"],["B ","false"],["F ","false"],["H ","false"],["G ","false"],["O ","false"],["C ","false"],["J ","false"],["I ","false"],["E ","false"],["L ","false"],["K ","false"]],"answer":["C","D","L"],"correct":1,"scaffold":"none","question":"start","scenario":"longmire","graph":"linear","condition":0,"session":"expert","experiment":"experiment","subject":"ZZTG2","internal_node_id":"0.0-5.0-0.0","time_elapsed":64424,"trial_index":5,"trial_type":"html","url":"../views/src/external/stimulus.html","rt":22601},{"block":"linear_scaffolded","helps":0,"clicked":[["answer","clicked"],["A ","false"],["M ","false"],["D ","false"],["N ","false"],["B ","false"],["F ","false"],["H ","false"],["G ","false"],["O ","false"],["C ","false"],["J ","false"],["I ","false"],["E ","false"],["L ","false"],["K ","false"]],"answer":["H","J","K","L","M","N","O"],"correct":1,"scaffold":"none","question":"end","scenario":"longmire","graph":"linear","condition":0,"session":"expert","experiment":"experiment","subject":"ZZTG2","internal_node_id":"0.0-5.0-1.0","time_elapsed":107540,"trial_index":6,"trial_type":"html","url":"../views/src/external/stimulus.html","rt":41837},{"block":"linear_scaffolded","helps":0,"clicked":[["answer","clicked"],["A ","false"],["M ","false"],["D ","false"],["N ","false"],["B ","false"],["F ","false"],["H ","false"],["G ","false"],["O ","false"],["C ","false"],["J ","false"],["I ","false"],["E ","false"],["L ","false"],["K ","false"]],"answer":["G","O"],"correct":1,"scaffold":"none","question":"duration","scenario":"longmire","graph":"linear","condition":0,"session":"expert","experiment":"experiment","subject":"ZZTG2","internal_node_id":"0.0-5.0-2.0","time_elapsed":139312,"trial_index":7,"trial_type":"html","url":"../views/src/external/stimulus.html","rt":30502},{"block":"linear_scaffolded","helps":0,"clicked":[["answer","clicked"],["A ","false"],["M ","false"],["D ","false"],["N ","false"],["B ","false"],["F ","false"],["H ","false"],["G ","false"],["O ","false"],["C ","false"],["J ","false"],["I ","false"],["E ","false"],["L ","false"],["K ","false"]],"answer":["1"],"correct":1,"scaffold":"none","question":"midpoint","scenario":"longmire","graph":"linear","condition":0,"session":"expert","experiment":"experiment","subject":"ZZTG2","internal_node_id":"0.0-5.0-3.0","time_elapsed":154822,"trial_index":8,"trial_type":"html","url":"../views/src/external/stimulus.html","rt":14231},{"block":"linear_scaffolded","helps":0,"clicked":[["answer","clicked"],["A ","false"],["M ","false"],["D ","false"],["N ","false"],["B ","false"],["F ","false"],["H ","false"],["G ","false"],["O ","false"],["C ","false"],["J ","false"],["I ","false"],["E ","false"],["L ","false"],["K ","false"]],"answer":["A"],"correct":1,"scaffold":"none","question":"start+overlap","scenario":"longmire","graph":"linear","condition":0,"session":"expert","experiment":"experiment","subject":"ZZTG2","internal_node_id":"0.0-5.0-4.0","time_elapsed":172424,"trial_index":9,"trial_type":"html","url":"../views/src/external/stimulus.html","rt":16326},{"block":"linear_testing","helps":0,"clicked":[["answer","clicked"],["A ","false"],["M ","false"],["D ","false"],["N ","false"],["B ","false"],["F ","false"],["H ","false"],["G ","false"],["O ","false"],["C ","false"],["J ","false"],["I ","false"],["E ","false"],["L ","false"],["K ","false"]],"answer":["C"],"correct":1,"scaffold":"none","question":"starts+finishes","scenario":"longmire","graph":"linear","condition":0,"session":"expert","experiment":"experiment","subject":"ZZTG2","internal_node_id":"0.0-6.0-9.0","time_elapsed":186238,"trial_index":10,"trial_type":"html","url":"../views/src/external/stimulus.html","rt":12542},{"block":"linear_testing","helps":0,"clicked":[["answer","clicked"],["A ","false"],["M ","false"],["D ","false"],["N ","false"],["B ","false"],["F ","false"],["H ","false"],["G ","false"],["O ","false"],["C ","false"],["J ","false"],["I ","false"],["E ","false"],["L ","false"],["K ","false"]],"answer":["A","B","D","F"],"correct":1,"scaffold":"none","question":"start+duration","scenario":"longmire","graph":"linear","condition":0,"session":"expert","experiment":"experiment","subject":"ZZTG2","internal_node_id":"0.0-6.0-0.0","time_elapsed":217657,"trial_index":11,"trial_type":"html","url":"../views/src/external/stimulus.html","rt":30146},{"block":"linear_testing","helps":0,"clicked":[["answer","clicked"],["A ","false"],["M ","false"],["D ","false"],["N ","false"],["B ","false"],["F ","false"],["H ","false"],["G ","false"],["O ","false"],["C ","false"],["J ","false"],["I ","false"],["E ","false"],["L ","false"],["K ","false"]],"answer":["G","O"],"correct":1,"scaffold":"none","question":"contain+duration","scenario":"longmire","graph":"linear","condition":0,"session":"expert","experiment":"experiment","subject":"ZZTG2","internal_node_id":"0.0-6.0-4.0","time_elapsed":231794,"trial_index":12,"trial_type":"html","url":"../views/src/external/stimulus.html","rt":12862},{"block":"linear_testing","helps":0,"clicked":[["answer","clicked"],["A ","false"],["M ","false"],["D ","false"],["N ","false"],["B ","false"],["F ","false"],["H ","false"],["G ","false"],["O ","false"],["C ","false"],["J ","false"],["I ","false"],["E ","false"],["L ","false"],["K ","false"]],"answer":["B","C","D","F","G"],"correct":1,"scaffold":"none","question":"during","scenario":"longmire","graph":"linear","condition":0,"session":"expert","experiment":"experiment","subject":"ZZTG2","internal_node_id":"0.0-6.0-7.0","time_elapsed":291378,"trial_index":13,"trial_type":"html","url":"../views/src/external/stimulus.html","rt":58311},{"block":"linear_testing","helps":0,"clicked":[["answer","clicked"],["A ","false"],["M ","false"],["D ","false"],["N ","false"],["B ","false"],["F ","false"],["H ","false"],["G ","false"],["O ","false"],["C ","false"],["J ","false"],["I ","false"],["E ","false"],["L ","false"],["K ","false"]],"answer":["6","8"],"correct":1,"scaffold":"none","question":"starts","scenario":"longmire","graph":"linear","condition":0,"session":"expert","experiment":"experiment","subject":"ZZTG2","internal_node_id":"0.0-6.0-5.0","time_elapsed":336571,"trial_index":14,"trial_type":"html","url":"../views/src/external/stimulus.html","rt":43922},{"block":"linear_testing","helps":0,"clicked":[["answer","clicked"],["A ","false"],["M ","false"],["D ","false"],["N ","false"],["B ","false"],["F ","false"],["H ","false"],["G ","false"],["O ","false"],["C ","false"],["J ","false"],["I ","false"],["E ","false"],["L ","false"],["K ","false"]],"answer":["A","B","C","D","F","I"],"correct":1,"scaffold":"none","question":"before+overlap","scenario":"longmire","graph":"linear","condition":0,"session":"expert","experiment":"experiment","subject":"ZZTG2","internal_node_id":"0.0-6.0-1.0","time_elapsed":378624,"trial_index":15,"trial_type":"html","url":"../views/src/external/stimulus.html","rt":40780},{"block":"linear_testing","helps":0,"clicked":[["answer","clicked"],["A ","false"],["M ","false"],["D ","false"],["N ","false"],["B ","false"],["F ","false"],["H ","false"],["G ","false"],["O ","false"],["C ","false"],["J ","false"],["I ","false"],["E ","false"],["L ","false"],["K ","false"]],"answer":["A","M","N"],"correct":1,"scaffold":"none","question":"overlap+overlap","scenario":"longmire","graph":"linear","condition":0,"session":"expert","experiment":"experiment","subject":"ZZTG2","internal_node_id":"0.0-6.0-2.0","time_elapsed":429118,"trial_index":16,"trial_type":"html","url":"../views/src/external/stimulus.html","rt":49215},{"block":"linear_testing","helps":0,"clicked":[["answer","clicked"],["A ","false"],["M ","false"],["D ","false"],["N ","false"],["B ","false"],["F ","false"],["H ","false"],["G ","false"],["O ","false"],["C ","false"],["J ","false"],["I ","false"],["E ","false"],["L ","false"],["K ","false"]],"answer":["O"],"correct":1,"scaffold":"none","question":"meets","scenario":"longmire","graph":"linear","condition":0,"session":"expert","experiment":"experiment","subject":"ZZTG2","internal_node_id":"0.0-6.0-8.0","time_elapsed":445583,"trial_index":17,"trial_type":"html","url":"../views/src/external/stimulus.html","rt":15178},{"block":"linear_testing","helps":0,"clicked":[["answer","clicked"],["A ","false"],["M ","false"],["D ","false"],["N ","false"],["B ","false"],["F ","false"],["H ","false"],["G ","false"],["O ","false"],["C ","false"],["J ","false"],["I ","false"],["E ","false"],["L ","false"],["K ","false"]],"answer":["K","L"],"correct":1,"scaffold":"none","question":"during+overlap","scenario":"longmire","graph":"linear","condition":0,"session":"expert","experiment":"experiment","subject":"ZZTG2","internal_node_id":"0.0-6.0-3.0","time_elapsed":479764,"trial_index":18,"trial_type":"html","url":"../views/src/external/stimulus.html","rt":32906},{"block":"linear_testing","helps":0,"clicked":[["answer","clicked"],["A ","false"],["M ","false"],["D ","false"],["N ","false"],["B ","false"],["F ","false"],["H ","false"],["G ","false"],["O ","false"],["C ","false"],["J ","false"],["I ","false"],["E ","false"],["L ","false"],["K ","false"]],"answer":["4","5"],"correct":1,"scaffold":"none","question":"finishes","scenario":"longmire","graph":"linear","condition":0,"session":"expert","experiment":"experiment","subject":"ZZTG2","internal_node_id":"0.0-6.0-6.0","time_elapsed":515657,"trial_index":19,"trial_type":"html","url":"../views/src/external/stimulus.html","rt":34625},{"condition":0,"session":"expert","experiment":"experiment","subject":"ZZTG2","internal_node_id":"0.0-7.0","time_elapsed":519117,"trial_index":20,"trial_type":"single-stim","block":"scenario-two","key_press":32,"stimulus":"img/axis.png","rt":2453},{"block":"triangular_scaffolded","helps":0,"clicked":[["answer","clicked"],["M ","false"],["B ","false"],["J ","false"],["N ","false"],["D ","false"],["O ","false"],["K ","false"],["C ","false"],["F ","false"],["I ","false"],["H ","false"],["G ","false"],["L ","false"],["E ","false"],["A ","false"]],"answer":["H","O"],"correct":1,"scaffold":"none","question":"start","scenario":"axis","graph":"triangular","condition":0,"session":"expert","experiment":"experiment","subject":"ZZTG2","internal_node_id":"0.0-8.0-0.0","time_elapsed":531557,"trial_index":21,"trial_type":"html","url":"../views/src/external/stimulus.html","rt":11168},{"block":"triangular_scaffolded","helps":0,"clicked":[["answer","clicked"],["M ","false"],["B ","false"],["J ","false"],["N ","false"],["D ","false"],["O ","false"],["K ","false"],["C ","false"],["F ","false"],["I ","false"],["H ","false"],["G ","false"],["L ","false"],["E ","false"],["A ","false"]],"answer":["4"],"correct":1,"scaffold":"none","question":"end","scenario":"axis","graph":"triangular","condition":0,"session":"expert","experiment":"experiment","subject":"ZZTG2","internal_node_id":"0.0-8.0-1.0","time_elapsed":540250,"trial_index":22,"trial_type":"html","url":"../views/src/external/stimulus.html","rt":7416},{"block":"triangular_scaffolded","helps":0,"clicked":[["answer","clicked"],["M ","false"],["B ","false"],["J ","false"],["N ","false"],["D ","false"],["O ","false"],["K ","false"],["C ","false"],["F ","false"],["I ","false"],["H ","false"],["G ","false"],["L ","false"],["E ","false"],["A ","false"]],"answer":["A","C","E","F","G","H","I","K","L"],"correct":1,"scaffold":"none","question":"duration","scenario":"axis","graph":"triangular","condition":0,"session":"expert","experiment":"experiment","subject":"ZZTG2","internal_node_id":"0.0-8.0-2.0","time_elapsed":569597,"trial_index":23,"trial_type":"html","url":"../views/src/external/stimulus.html","rt":28068},{"block":"triangular_scaffolded","helps":0,"clicked":[["answer","clicked"],["M ","false"],["B ","false"],["J ","false"],["N ","false"],["D ","false"],["O ","false"],["K ","false"],["C ","false"],["F ","false"],["I ","false"],["H ","false"],["G ","false"],["L ","false"],["E ","false"],["A ","false"]],"answer":["8"],"correct":1,"scaffold":"none","question":"midpoint","scenario":"axis","graph":"triangular","condition":0,"session":"expert","experiment":"experiment","subject":"ZZTG2","internal_node_id":"0.0-8.0-3.0","time_elapsed":593648,"trial_index":24,"trial_type":"html","url":"../views/src/external/stimulus.html","rt":22780},{"block":"triangular_scaffolded","helps":0,"clicked":[["answer","clicked"],["M ","false"],["B ","false"],["J ","false"],["N ","false"],["D ","false"],["O ","false"],["K ","false"],["C ","false"],["F ","false"],["I ","false"],["H ","false"],["G ","false"],["L ","false"],["E ","false"],["A ","false"]],"answer":["8"],"correct":0,"scaffold":"none","question":"start+overlap","scenario":"axis","graph":"triangular","condition":0,"session":"expert","experiment":"experiment","subject":"ZZTG2","internal_node_id":"0.0-8.0-4.0","time_elapsed":636709,"trial_index":25,"trial_type":"html","url":"../views/src/external/stimulus.html","rt":41765},{"block":"triangular_testing","helps":0,"answer":["F","G","M","O"],"clicked":[["answer","clicked"],["M ","false"],["B ","false"],["J ","false"],["N ","false"],["D ","false"],["O ","false"],["K ","false"],["C ","false"],["F ","false"],["I ","false"],["H ","false"],["G ","false"],["L ","false"],["E ","false"],["A ","false"]],"correct":1,"scaffold":"none","question":"before+overlap","scenario":"axis","graph":"triangular","condition":0,"session":"expert","experiment":"experiment","subject":"ZZTG2","internal_node_id":"0.0-9.0-1.0","time_elapsed":669101,"trial_index":26,"trial_type":"html","url":"../views/src/external/stimulus.html","rt":31108},{"block":"triangular_testing","helps":0,"answer":["F","M","O"],"clicked":[["answer","clicked"],["M ","false"],["B ","false"],["J ","false"],["N ","false"],["D ","false"],["O ","false"],["K ","false"],["C ","false"],["F ","false"],["I ","false"],["H ","false"],["G ","false"],["L ","false"],["E ","false"],["A ","false"]],"correct":1,"scaffold":"none","question":"during","scenario":"axis","graph":"triangular","condition":0,"session":"expert","experiment":"experiment","subject":"ZZTG2","internal_node_id":"0.0-9.0-7.0","time_elapsed":693276,"trial_index":27,"trial_type":"html","url":"../views/src/external/stimulus.html","rt":22898},{"block":"triangular_testing","helps":0,"answer":["G","O"],"clicked":[["answer","clicked"],["M ","false"],["B ","false"],["J ","false"],["N ","false"],["D ","false"],["O ","false"],["K ","false"],["C ","false"],["F ","false"],["I ","false"],["H ","false"],["G ","false"],["L ","false"],["E ","false"],["A ","false"]],"correct":1,"scaffold":"none","question":"finishes","scenario":"axis","graph":"triangular","condition":0,"session":"expert","experiment":"experiment","subject":"ZZTG2","internal_node_id":"0.0-9.0-6.0","time_elapsed":703457,"trial_index":28,"trial_type":"html","url":"../views/src/external/stimulus.html","rt":8905},{"block":"triangular_testing","helps":0,"answer":["6"],"clicked":[["answer","clicked"],["M ","false"],["B ","false"],["J ","false"],["N ","false"],["D ","false"],["O ","false"],["K ","false"],["C ","false"],["F ","false"],["I ","false"],["H ","false"],["G ","false"],["L ","false"],["E ","false"],["A ","false"]],"correct":1,"scaffold":"none","question":"starts","scenario":"axis","graph":"triangular","condition":0,"session":"expert","experiment":"experiment","subject":"ZZTG2","internal_node_id":"0.0-9.0-5.0","time_elapsed":726142,"trial_index":29,"trial_type":"html","url":"../views/src/external/stimulus.html","rt":21409},{"block":"triangular_testing","helps":0,"answer":["A","B","C","E","J"],"clicked":[["answer","clicked"],["M ","false"],["B ","false"],["J ","false"],["N ","false"],["D ","false"],["O ","false"],["K ","false"],["C ","false"],["F ","false"],["I ","false"],["H ","false"],["G ","false"],["L ","false"],["E ","false"],["A ","false"]],"correct":1,"scaffold":"none","question":"overlap+overlap","scenario":"axis","graph":"triangular","condition":0,"session":"expert","experiment":"experiment","subject":"ZZTG2","internal_node_id":"0.0-9.0-2.0","time_elapsed":769086,"trial_index":30,"trial_type":"html","url":"../views/src/external/stimulus.html","rt":41675},{"block":"triangular_testing","helps":0,"answer":["9"],"clicked":[["answer","clicked"],["M ","false"],["B ","false"],["J ","false"],["N ","false"],["D ","false"],["O ","false"],["K ","false"],["C ","false"],["F ","false"],["I ","false"],["H ","false"],["G ","false"],["L ","false"],["E ","false"],["A ","false"]],"correct":1,"scaffold":"none","question":"start+duration","scenario":"axis","graph":"triangular","condition":0,"session":"expert","experiment":"experiment","subject":"ZZTG2","internal_node_id":"0.0-9.0-0.0","time_elapsed":791568,"trial_index":31,"trial_type":"html","url":"../views/src/external/stimulus.html","rt":21208},{"block":"triangular_testing","helps":0,"answer":["G"],"clicked":[["answer","clicked"],["M ","false"],["B ","false"],["J ","false"],["N ","false"],["D ","false"],["O ","false"],["K ","false"],["C ","false"],["F ","false"],["I ","false"],["H ","false"],["G ","false"],["L ","false"],["E ","false"],["A ","false"]],"correct":1,"scaffold":"none","question":"starts+finishes","scenario":"axis","graph":"triangular","condition":0,"session":"expert","experiment":"experiment","subject":"ZZTG2","internal_node_id":"0.0-9.0-9.0","time_elapsed":805225,"trial_index":32,"trial_type":"html","url":"../views/src/external/stimulus.html","rt":12387},{"block":"triangular_testing","helps":0,"answer":["D","M","N","O"],"clicked":[["answer","clicked"],["M ","false"],["B ","false"],["J ","false"],["N ","false"],["D ","false"],["O ","false"],["K ","false"],["C ","false"],["F ","false"],["I ","false"],["H ","false"],["G ","false"],["L ","false"],["E ","false"],["A ","false"]],"correct":1,"scaffold":"none","question":"contain+duration","scenario":"axis","graph":"triangular","condition":0,"session":"expert","experiment":"experiment","subject":"ZZTG2","internal_node_id":"0.0-9.0-4.0","time_elapsed":841080,"trial_index":33,"trial_type":"html","url":"../views/src/external/stimulus.html","rt":34578},{"block":"triangular_testing","helps":0,"answer":["A"],"clicked":[["answer","clicked"],["M ","false"],["B ","false"],["J ","false"],["N ","false"],["D ","false"],["O ","false"],["K ","false"],["C ","false"],["F ","false"],["I ","false"],["H ","false"],["G ","false"],["L ","false"],["E ","false"],["A ","false"]],"correct":1,"scaffold":"none","question":"during+overlap","scenario":"axis","graph":"triangular","condition":0,"session":"expert","experiment":"experiment","subject":"ZZTG2","internal_node_id":"0.0-9.0-3.0","time_elapsed":885404,"trial_index":34,"trial_type":"html","url":"../views/src/external/stimulus.html","rt":43049},{"block":"triangular_testing","helps":0,"answer":["G"],"clicked":[["answer","clicked"],["M ","false"],["B ","false"],["J ","false"],["N ","false"],["D ","false"],["O ","false"],["K ","false"],["C ","false"],["F ","false"],["I ","false"],["H ","false"],["G ","false"],["L ","false"],["E ","false"],["A ","false"]],"correct":1,"scaffold":"none","question":"meets","scenario":"axis","graph":"triangular","condition":0,"session":"expert","experiment":"experiment","subject":"ZZTG2","internal_node_id":"0.0-9.0-8.0","time_elapsed":919766,"trial_index":35,"trial_type":"html","url":"../views/src/external/stimulus.html","rt":33076},{"condition":0,"session":"expert","experiment":"experiment","subject":"ZZTG2","internal_node_id":"0.0-10.0","time_elapsed":922025,"trial_index":36,"trial_type":"single-stim","block":"scenario-draw","key_press":32,"stimulus":"img/jones.png","rt":1257},{"condition":0,"session":"expert","experiment":"experiment","subject":"ZZTG2","internal_node_id":"0.0-11.0","time_elapsed":930523,"trial_index":37,"trial_type":"html","block":"instructions_drawing","url":"../views/src/external/instructions_draw.html","rt":7404},{"block":"drawingTest","clicked":[["answer","clicked"]],"answer":["C1"],"correct":1,"scaffold":"none","question":"duration","scenario":"jones","graph":"none","condition":0,"session":"expert","experiment":"experiment","subject":"ZZTG2","internal_node_id":"0.0-12.0","time_elapsed":936295,"trial_index":38,"trial_type":"html","url":"../views/src/external/stimulus.html","rt":4505},{"block":"drawingTest","clicked":[["answer","clicked"]],"answer":["Chris","3-4pm"],"correct":1,"scaffold":"none","question":"overlap","scenario":"jones","graph":"none","condition":0,"session":"expert","experiment":"experiment","subject":"ZZTG2","internal_node_id":"0.0-13.0","time_elapsed":943158,"trial_index":39,"trial_type":"html","url":"../views/src/external/stimulus.html","rt":5590},{"condition":0,"session":"expert","experiment":"experiment","subject":"ZZTG2","internal_node_id":"0.0-14.0","time_elapsed":951922,"trial_index":40,"trial_type":"survey-text","block":"demo-1","responses":"{\"Q0\":\"22\",\"Q1\":\"Taiwan\"}","rt":7760},{"condition":0,"session":"expert","experiment":"experiment","subject":"ZZTG2","internal_node_id":"0.0-15.0","time_elapsed":961334,"trial_index":41,"trial_type":"survey-multi-choice","block":"demo-2","responses":"{\"Q0\":\"Mandarin or Cantonese\",\"Q1\":\"Fourth\",\"Q2\":\"Social Sciences (incl. CogSci)\",\"Q3\":\"Female\",\"Q4\":\"the second one (triangular)\"}","rt":8384},{"condition":0,"session":"expert","experiment":"experiment","subject":"ZZTG2","internal_node_id":"0.0-16.0","time_elapsed":963909,"trial_index":42,"trial_type":"html","block":"debrief","url":"../views/src/external/debrief.html","rt":1399}],"__v":0}
{"_id":{"$oid":"591a81b12f7fe50004c1f5fe"},"data":[{"condition":0,"session":"aexpert","experiment":"experiment","subject":"V3769","internal_node_id":"0.0-0.0","time_elapsed":6804,"trial_index":0,"trial_type":"single-stim","block":"phone","key_press":13,"stimulus":"img/phone.png","rt":6800},{"condition":0,"session":"aexpert","experiment":"experiment","subject":"V3769","internal_node_id":"0.0-1.0","time_elapsed":11282,"trial_index":1,"trial_type":"html","block":"consent","url":"../views/src/external/consent.html","rt":3338},{"condition":0,"session":"aexpert","experiment":"experiment","subject":"V3769","internal_node_id":"0.0-2.0","time_elapsed":29627,"trial_index":2,"trial_type":"survey-text","block":"codes","responses":"{\"Q0\":\"Aexpert\",\"Q1\":\"0\"}","rt":17339},{"condition":0,"session":"aexpert","experiment":"experiment","subject":"V3769","internal_node_id":"0.0-3.0","time_elapsed":33260,"trial_index":3,"trial_type":"html","block":"instructions_lab","url":"../views/src/external/instructions_lab.html","rt":2495},{"condition":0,"session":"aexpert","experiment":"experiment","subject":"V3769","internal_node_id":"0.0-4.0","time_elapsed":35424,"trial_index":4,"trial_type":"single-stim","block":"scenario-one","key_press":13,"stimulus":"img/axis.png","rt":1162},{"block":"linear_scaffolded","helps":0,"clicked":[["answer","clicked"],["M ","false"],["B ","false"],["J ","false"],["N ","false"],["D ","false"],["O ","false"],["K ","false"],["C ","false"],["F ","false"],["I ","false"],["H ","false"],["G ","false"],["L ","false"],["E ","false"],["A ","false"]],"answer":["H","O"],"correct":1,"scaffold":"none","question":"start","scenario":"axis","graph":"linear","condition":0,"session":"aexpert","experiment":"experiment","subject":"V3769","internal_node_id":"0.0-5.0-0.0","time_elapsed":52296,"trial_index":5,"trial_type":"html","url":"../views/src/external/stimulus.html","rt":15486},{"block":"linear_scaffolded","helps":0,"clicked":[["answer","clicked"],["M ","false"],["B ","false"],["J ","false"],["N ","false"],["D ","false"],["O ","false"],["K ","false"],["C ","false"],["F ","false"],["I ","false"],["H ","false"],["G ","false"],["L ","false"],["E ","false"],["A ","false"]],"answer":["4"],"correct":1,"scaffold":"none","question":"end","scenario":"axis","graph":"linear","condition":0,"session":"aexpert","experiment":"experiment","subject":"V3769","internal_node_id":"0.0-5.0-1.0","time_elapsed":61544,"trial_index":6,"trial_type":"html","url":"../views/src/external/stimulus.html","rt":7835},{"block":"linear_scaffolded","helps":0,"clicked":[["answer","clicked"],["M ","false"],["B ","false"],["J ","false"],["N ","false"],["D ","false"],["O ","false"],["K ","false"],["C ","false"],["F ","false"],["I ","false"],["H ","false"],["G ","false"],["L ","false"],["E ","false"],["A ","false"]],"answer":["A","C","E","F","G","H","I","K","L"],"correct":1,"scaffold":"none","question":"duration","scenario":"axis","graph":"linear","condition":0,"session":"aexpert","experiment":"experiment","subject":"V3769","internal_node_id":"0.0-5.0-2.0","time_elapsed":106767,"trial_index":7,"trial_type":"html","url":"../views/src/external/stimulus.html","rt":43833},{"block":"linear_scaffolded","helps":0,"clicked":[["answer","clicked"],["M ","false"],["B ","false"],["J ","false"],["N ","false"],["D ","false"],["O ","false"],["K ","false"],["C ","false"],["F ","false"],["I ","false"],["H ","false"],["G ","false"],["L ","false"],["E ","false"],["A ","false"]],"answer":["8"],"correct":1,"scaffold":"none","question":"midpoint","scenario":"axis","graph":"linear","condition":0,"session":"aexpert","experiment":"experiment","subject":"V3769","internal_node_id":"0.0-5.0-3.0","time_elapsed":130869,"trial_index":8,"trial_type":"html","url":"../views/src/external/stimulus.html","rt":22787},{"block":"linear_scaffolded","helps":0,"clicked":[["answer","clicked"],["M ","false"],["B ","false"],["J ","false"],["N ","false"],["D ","false"],["O ","false"],["K ","false"],["C ","false"],["F ","false"],["I ","false"],["H ","false"],["G ","false"],["L ","false"],["E ","false"],["A ","false"]],"answer":["7"],"correct":1,"scaffold":"none","question":"start+overlap","scenario":"axis","graph":"linear","condition":0,"session":"aexpert","experiment":"experiment","subject":"V3769","internal_node_id":"0.0-5.0-4.0","time_elapsed":158375,"trial_index":9,"trial_type":"html","url":"../views/src/external/stimulus.html","rt":26166},{"block":"linear_testing","helps":0,"clicked":[["answer","clicked"],["M ","false"],["B ","false"],["J ","false"],["N ","false"],["D ","false"],["O ","false"],["K ","false"],["C ","false"],["F ","false"],["I ","false"],["H ","false"],["G ","false"],["L ","false"],["E ","false"],["A ","false"]],"answer":["A","C","E","F"],"correct":0,"scaffold":"none","question":"overlap+overlap","scenario":"axis","graph":"linear","condition":0,"session":"aexpert","experiment":"experiment","subject":"V3769","internal_node_id":"0.0-6.0-2.0","time_elapsed":197253,"trial_index":10,"trial_type":"html","url":"../views/src/external/stimulus.html","rt":37550},{"block":"linear_testing","helps":0,"clicked":[["answer","clicked"],["M ","false"],["B ","false"],["J ","false"],["N ","false"],["D ","false"],["O ","false"],["K ","false"],["C ","false"],["F ","false"],["I ","false"],["H ","false"],["G ","false"],["L ","false"],["E ","false"],["A ","false"]],"answer":["6"],"correct":1,"scaffold":"none","question":"starts","scenario":"axis","graph":"linear","condition":0,"session":"aexpert","experiment":"experiment","subject":"V3769","internal_node_id":"0.0-6.0-5.0","time_elapsed":244862,"trial_index":11,"trial_type":"html","url":"../views/src/external/stimulus.html","rt":46302},{"block":"linear_testing","helps":0,"clicked":[["answer","clicked"],["M ","false"],["B ","false"],["J ","false"],["N ","false"],["D ","false"],["O ","false"],["K ","false"],["C ","false"],["F ","false"],["I ","false"],["H ","false"],["G ","false"],["L ","false"],["E ","false"],["A ","false"]],"answer":["M","O"],"correct":0,"scaffold":"none","question":"before+overlap","scenario":"axis","graph":"linear","condition":0,"session":"aexpert","experiment":"experiment","subject":"V3769","internal_node_id":"0.0-6.0-1.0","time_elapsed":275682,"trial_index":12,"trial_type":"html","url":"../views/src/external/stimulus.html","rt":29486},{"block":"linear_testing","helps":0,"clicked":[["answer","clicked"],["M ","false"],["B ","false"],["J ","false"],["N ","false"],["D ","false"],["O ","false"],["K ","false"],["C ","false"],["F ","false"],["I ","false"],["H ","false"],["G ","false"],["L ","false"],["E ","false"],["A ","false"]],"answer":["9"],"correct":1,"scaffold":"none","question":"start+duration","scenario":"axis","graph":"linear","condition":0,"session":"aexpert","experiment":"experiment","subject":"V3769","internal_node_id":"0.0-6.0-0.0","time_elapsed":286187,"trial_index":13,"trial_type":"html","url":"../views/src/external/stimulus.html","rt":9145},{"block":"linear_testing","helps":0,"clicked":[["answer","clicked"],["M ","false"],["B ","false"],["J ","false"],["N ","false"],["D ","false"],["O ","false"],["K ","false"],["C ","false"],["F ","false"],["I ","false"],["H ","false"],["G ","false"],["L ","false"],["E ","false"],["A ","false"]],"answer":["G","O"],"correct":1,"scaffold":"none","question":"finishes","scenario":"axis","graph":"linear","condition":0,"session":"aexpert","experiment":"experiment","subject":"V3769","internal_node_id":"0.0-6.0-6.0","time_elapsed":302668,"trial_index":14,"trial_type":"html","url":"../views/src/external/stimulus.html","rt":15182},{"block":"linear_testing","helps":0,"clicked":[["answer","clicked"],["M ","false"],["B ","false"],["J ","false"],["N ","false"],["D ","false"],["O ","false"],["K ","false"],["C ","false"],["F ","false"],["I ","false"],["H ","false"],["G ","false"],["L ","false"],["E ","false"],["A ","false"]],"answer":["G"],"correct":1,"scaffold":"none","question":"meets","scenario":"axis","graph":"linear","condition":0,"session":"aexpert","experiment":"experiment","subject":"V3769","internal_node_id":"0.0-6.0-8.0","time_elapsed":330102,"trial_index":15,"trial_type":"html","url":"../views/src/external/stimulus.html","rt":26113},{"block":"linear_testing","helps":0,"clicked":[["answer","clicked"],["M ","false"],["B ","false"],["J ","false"],["N ","false"],["D ","false"],["O ","false"],["K ","false"],["C ","false"],["F ","false"],["I ","false"],["H ","false"],["G ","false"],["L ","false"],["E ","false"],["A ","false"]],"answer":["G"],"correct":1,"scaffold":"none","question":"starts+finishes","scenario":"axis","graph":"linear","condition":0,"session":"aexpert","experiment":"experiment","subject":"V3769","internal_node_id":"0.0-6.0-9.0","time_elapsed":344835,"trial_index":16,"trial_type":"html","url":"../views/src/external/stimulus.html","rt":13368},{"block":"linear_testing","helps":0,"clicked":[["answer","clicked"],["M ","false"],["B ","false"],["J ","false"],["N ","false"],["D ","false"],["O ","false"],["K ","false"],["C ","false"],["F ","false"],["I ","false"],["H ","false"],["G ","false"],["L ","false"],["E ","false"],["A ","false"]],"answer":["F","M","O"],"correct":1,"scaffold":"none","question":"during","scenario":"axis","graph":"linear","condition":0,"session":"aexpert","experiment":"experiment","subject":"V3769","internal_node_id":"0.0-6.0-7.0","time_elapsed":380461,"trial_index":17,"trial_type":"html","url":"../views/src/external/stimulus.html","rt":34299},{"block":"linear_testing","helps":0,"clicked":[["answer","clicked"],["M ","false"],["B ","false"],["J ","false"],["N ","false"],["D ","false"],["O ","false"],["K ","false"],["C ","false"],["F ","false"],["I ","false"],["H ","false"],["G ","false"],["L ","false"],["E ","false"],["A ","false"]],"answer":["A"],"correct":1,"scaffold":"none","question":"during+overlap","scenario":"axis","graph":"linear","condition":0,"session":"aexpert","experiment":"experiment","subject":"V3769","internal_node_id":"0.0-6.0-3.0","time_elapsed":408262,"trial_index":18,"trial_type":"html","url":"../views/src/external/stimulus.html","rt":26378},{"block":"linear_testing","helps":0,"clicked":[["answer","clicked"],["M ","false"],["B ","false"],["J ","false"],["N ","false"],["D ","false"],["O ","false"],["K ","false"],["C ","false"],["F ","false"],["I ","false"],["H ","false"],["G ","false"],["L ","false"],["E ","false"],["A ","false"]],"answer":["D","M","N","O"],"correct":1,"scaffold":"none","question":"contain+duration","scenario":"axis","graph":"linear","condition":0,"session":"aexpert","experiment":"experiment","subject":"V3769","internal_node_id":"0.0-6.0-4.0","time_elapsed":441334,"trial_index":19,"trial_type":"html","url":"../views/src/external/stimulus.html","rt":31657},{"condition":0,"session":"aexpert","experiment":"experiment","subject":"V3769","internal_node_id":"0.0-7.0","time_elapsed":443830,"trial_index":20,"trial_type":"single-stim","block":"scenario-two","key_press":13,"stimulus":"img/longmire.png","rt":1492},{"block":"triangular_scaffolded","helps":0,"clicked":[["answer","clicked"],["A ","false"],["M ","false"],["D ","false"],["N ","false"],["B ","false"],["F ","false"],["H ","false"],["G ","false"],["O ","false"],["C ","false"],["J ","false"],["I ","false"],["E ","false"],["L ","false"],["K ","false"]],"answer":["C","D","L"],"correct":1,"scaffold":"none","question":"start","scenario":"longmire","graph":"triangular","condition":0,"session":"aexpert","experiment":"experiment","subject":"V3769","internal_node_id":"0.0-8.0-0.0","time_elapsed":455456,"trial_index":21,"trial_type":"html","url":"../views/src/external/stimulus.html","rt":10284},{"block":"triangular_scaffolded","helps":0,"clicked":[["answer","clicked"],["A ","false"],["M ","false"],["D ","false"],["N ","false"],["B ","false"],["F ","false"],["H ","false"],["G ","false"],["O ","false"],["C ","false"],["J ","false"],["I ","false"],["E ","false"],["L ","false"],["K ","false"]],"answer":["H","J","K","L","M","N","O"],"correct":1,"scaffold":"none","question":"end","scenario":"longmire","graph":"triangular","condition":0,"session":"aexpert","experiment":"experiment","subject":"V3769","internal_node_id":"0.0-8.0-1.0","time_elapsed":488876,"trial_index":22,"trial_type":"html","url":"../views/src/external/stimulus.html","rt":32003},{"block":"triangular_scaffolded","helps":0,"clicked":[["answer","clicked"],["A ","false"],["M ","false"],["D ","false"],["N ","false"],["B ","false"],["F ","false"],["H ","false"],["G ","false"],["O ","false"],["C ","false"],["J ","false"],["I ","false"],["E ","false"],["L ","false"],["K ","false"]],"answer":["G","O"],"correct":1,"scaffold":"none","question":"duration","scenario":"longmire","graph":"triangular","condition":0,"session":"aexpert","experiment":"experiment","subject":"V3769","internal_node_id":"0.0-8.0-2.0","time_elapsed":497101,"trial_index":23,"trial_type":"html","url":"../views/src/external/stimulus.html","rt":6838},{"block":"triangular_scaffolded","helps":0,"clicked":[["answer","clicked"],["A ","false"],["M ","false"],["D ","false"],["N ","false"],["B ","false"],["F ","false"],["H ","false"],["G ","false"],["O ","false"],["C ","false"],["J ","false"],["I ","false"],["E ","false"],["L ","false"],["K ","false"]],"answer":["1"],"correct":1,"scaffold":"none","question":"midpoint","scenario":"longmire","graph":"triangular","condition":0,"session":"aexpert","experiment":"experiment","subject":"V3769","internal_node_id":"0.0-8.0-3.0","time_elapsed":510685,"trial_index":24,"trial_type":"html","url":"../views/src/external/stimulus.html","rt":12110},{"block":"triangular_scaffolded","helps":0,"clicked":[["answer","clicked"],["A ","false"],["M ","false"],["D ","false"],["N ","false"],["B ","false"],["F ","false"],["H ","false"],["G ","false"],["O ","false"],["C ","false"],["J ","false"],["I ","false"],["E ","false"],["L ","false"],["K ","false"]],"answer":["A"],"correct":1,"scaffold":"none","question":"start+overlap","scenario":"longmire","graph":"triangular","condition":0,"session":"aexpert","experiment":"experiment","subject":"V3769","internal_node_id":"0.0-8.0-4.0","time_elapsed":526391,"trial_index":25,"trial_type":"html","url":"../views/src/external/stimulus.html","rt":14100},{"block":"triangular_testing","helps":0,"answer":["K","L"],"clicked":[["answer","clicked"],["A ","false"],["M ","false"],["D ","true"],["N ","false"],["B ","false"],["F ","false"],["H ","true"],["G ","false"],["O ","false"],["C ","false"],["J ","false"],["I ","false"],["E ","false"],["L ","true"],["K ","true"]],"correct":1,"scaffold":"none","question":"during+overlap","scenario":"longmire","graph":"triangular","condition":0,"session":"aexpert","experiment":"experiment","subject":"V3769","internal_node_id":"0.0-9.0-3.0","time_elapsed":607580,"trial_index":26,"trial_type":"html","url":"../views/src/external/stimulus.html","rt":79836},{"block":"triangular_testing","helps":0,"answer":["A","B","D","F"],"clicked":[["answer","clicked"],["A ","false"],["M ","false"],["D ","false"],["N ","false"],["B ","false"],["F ","false"],["H ","false"],["G ","false"],["O ","false"],["C ","false"],["J ","false"],["I ","false"],["E ","false"],["L ","false"],["K ","false"]],"correct":1,"scaffold":"none","question":"start+duration","scenario":"longmire","graph":"triangular","condition":0,"session":"aexpert","experiment":"experiment","subject":"V3769","internal_node_id":"0.0-9.0-0.0","time_elapsed":643283,"trial_index":27,"trial_type":"html","url":"../views/src/external/stimulus.html","rt":33810},{"block":"triangular_testing","helps":0,"answer":["C"],"clicked":[["answer","clicked"],["A ","false"],["M ","false"],["D ","false"],["N ","false"],["B ","false"],["F ","false"],["H ","false"],["G ","false"],["O ","false"],["C ","false"],["J ","false"],["I ","false"],["E ","false"],["L ","false"],["K ","false"]],"correct":1,"scaffold":"none","question":"starts+finishes","scenario":"longmire","graph":"triangular","condition":0,"session":"aexpert","experiment":"experiment","subject":"V3769","internal_node_id":"0.0-9.0-9.0","time_elapsed":654561,"trial_index":28,"trial_type":"html","url":"../views/src/external/stimulus.html","rt":9905},{"block":"triangular_testing","helps":0,"answer":["A","M","N"],"clicked":[["answer","clicked"],["A ","false"],["M ","false"],["D ","true"],["N ","false"],["B ","false"],["F ","false"],["H ","true"],["G ","false"],["O ","false"],["C ","false"],["J ","false"],["I ","false"],["E ","false"],["L ","false"],["K ","false"]],"correct":1,"scaffold":"none","question":"overlap+overlap","scenario":"longmire","graph":"triangular","condition":0,"session":"aexpert","experiment":"experiment","subject":"V3769","internal_node_id":"0.0-9.0-2.0","time_elapsed":686020,"trial_index":29,"trial_type":"html","url":"../views/src/external/stimulus.html","rt":30087},{"block":"triangular_testing","helps":0,"answer":["A"],"clicked":[["answer","clicked"],["A ","false"],["M ","false"],["D ","false"],["N ","false"],["B ","false"],["F ","false"],["H ","false"],["G ","false"],["O ","false"],["C ","false"],["J ","false"],["I ","false"],["E ","true"],["L ","false"],["K ","false"]],"correct":0,"scaffold":"none","question":"before+overlap","scenario":"longmire","graph":"triangular","condition":0,"session":"aexpert","experiment":"experiment","subject":"V3769","internal_node_id":"0.0-9.0-1.0","time_elapsed":715355,"trial_index":30,"trial_type":"html","url":"../views/src/external/stimulus.html","rt":28008},{"block":"triangular_testing","helps":0,"answer":["G","O"],"clicked":[["answer","clicked"],["A ","false"],["M ","false"],["D ","false"],["N ","false"],["B ","false"],["F ","false"],["H ","false"],["G ","false"],["O ","false"],["C ","false"],["J ","true"],["I ","false"],["E ","false"],["L ","false"],["K ","false"]],"correct":1,"scaffold":"none","question":"contain+duration","scenario":"longmire","graph":"triangular","condition":0,"session":"aexpert","experiment":"experiment","subject":"V3769","internal_node_id":"0.0-9.0-4.0","time_elapsed":726683,"trial_index":31,"trial_type":"html","url":"../views/src/external/stimulus.html","rt":9831},{"block":"triangular_testing","helps":0,"answer":["O"],"clicked":[["answer","clicked"],["A ","false"],["M ","false"],["D ","false"],["N ","false"],["B ","false"],["F ","true"],["H ","false"],["G ","false"],["O ","true"],["C ","false"],["J ","false"],["I ","false"],["E ","false"],["L ","false"],["K ","false"]],"correct":1,"scaffold":"none","question":"meets","scenario":"longmire","graph":"triangular","condition":0,"session":"aexpert","experiment":"experiment","subject":"V3769","internal_node_id":"0.0-9.0-8.0","time_elapsed":740247,"trial_index":32,"trial_type":"html","url":"../views/src/external/stimulus.html","rt":12248},{"block":"triangular_testing","helps":0,"answer":["B","C","D","F","G"],"clicked":[["answer","clicked"],["A ","false"],["M ","false"],["D ","true"],["N ","false"],["B ","true"],["F ","true"],["H ","false"],["G ","true"],["O ","false"],["C ","true"],["J ","false"],["I ","false"],["E ","true"],["L ","false"],["K ","false"]],"correct":1,"scaffold":"none","question":"during","scenario":"longmire","graph":"triangular","condition":0,"session":"aexpert","experiment":"experiment","subject":"V3769","internal_node_id":"0.0-9.0-7.0","time_elapsed":771724,"trial_index":33,"trial_type":"html","url":"../views/src/external/stimulus.html","rt":30132},{"block":"triangular_testing","helps":0,"answer":["4","5"],"clicked":[["answer","clicked"],["A ","false"],["M ","false"],["D ","false"],["N ","false"],["B ","false"],["F ","false"],["H ","false"],["G ","false"],["O ","false"],["C ","false"],["J ","false"],["I ","false"],["E ","false"],["L ","false"],["K ","false"]],"correct":1,"scaffold":"none","question":"finishes","scenario":"longmire","graph":"triangular","condition":0,"session":"aexpert","experiment":"experiment","subject":"V3769","internal_node_id":"0.0-9.0-6.0","time_elapsed":792709,"trial_index":34,"trial_type":"html","url":"../views/src/external/stimulus.html","rt":19619},{"block":"triangular_testing","helps":0,"answer":["6","8"],"clicked":[["answer","clicked"],["A ","false"],["M ","false"],["D ","false"],["N ","false"],["B ","false"],["F ","false"],["H ","false"],["G ","false"],["O ","false"],["C ","false"],["J ","false"],["I ","false"],["E ","false"],["L ","false"],["K ","false"]],"correct":1,"scaffold":"none","question":"starts","scenario":"longmire","graph":"triangular","condition":0,"session":"aexpert","experiment":"experiment","subject":"V3769","internal_node_id":"0.0-9.0-5.0","time_elapsed":812854,"trial_index":35,"trial_type":"html","url":"../views/src/external/stimulus.html","rt":18527},{"condition":0,"session":"aexpert","experiment":"experiment","subject":"V3769","internal_node_id":"0.0-10.0","time_elapsed":815145,"trial_index":36,"trial_type":"single-stim","block":"scenario-draw","key_press":13,"stimulus":"img/jones.png","rt":1287},{"condition":0,"session":"aexpert","experiment":"experiment","subject":"V3769","internal_node_id":"0.0-11.0","time_elapsed":824594,"trial_index":37,"trial_type":"html","block":"instructions_drawing","url":"../views/src/external/instructions_draw.html","rt":8253},{"block":"drawingTest","clicked":[["answer","clicked"]],"answer":["A1"],"correct":0,"scaffold":"none","question":"duration","scenario":"jones","graph":"none","condition":0,"session":"aexpert","experiment":"experiment","subject":"V3769","internal_node_id":"0.0-12.0","time_elapsed":829157,"trial_index":38,"trial_type":"html","url":"../views/src/external/stimulus.html","rt":3081},{"block":"drawingTest","clicked":[["answer","clicked"]],"answer":["Anne"],"correct":0,"scaffold":"none","question":"overlap","scenario":"jones","graph":"none","condition":0,"session":"aexpert","experiment":"experiment","subject":"V3769","internal_node_id":"0.0-13.0","time_elapsed":832643,"trial_index":39,"trial_type":"html","url":"../views/src/external/stimulus.html","rt":2019},{"condition":0,"session":"aexpert","experiment":"experiment","subject":"V3769","internal_node_id":"0.0-14.0","time_elapsed":840912,"trial_index":40,"trial_type":"survey-text","block":"demo-1","responses":"{\"Q0\":\"test\",\"Q1\":\"test\"}","rt":7265},{"condition":0,"session":"aexpert","experiment":"experiment","subject":"V3769","internal_node_id":"0.0-15.0","time_elapsed":851316,"trial_index":41,"trial_type":"survey-multi-choice","block":"demo-2","responses":"{\"Q0\":\"English\",\"Q1\":\"Graduate\",\"Q2\":\"Social Sciences (incl. CogSci)\",\"Q3\":\"Female\",\"Q4\":\"the second one (triangular)\"}","rt":9389},{"condition":0,"session":"aexpert","experiment":"experiment","subject":"V3769","internal_node_id":"0.0-16.0","time_elapsed":853980,"trial_index":42,"trial_type":"html","block":"debrief","url":"../views/src/external/debrief.html","rt":1561}],"__v":0}
