{"_id":{"$oid":"58ee51ba67f8ac00049de412"},"data":[{"condition":0,"session":"expert","experiment":"experiment","subject":"PPACF","internal_node_id":"0.0-0.0","time_elapsed":111930,"trial_index":0,"trial_type":"single-stim","block":"phone","key_press":32,"stimulus":"img/phone.png","rt":111924},{"condition":0,"session":"expert","experiment":"experiment","subject":"PPACF","internal_node_id":"0.0-1.0","time_elapsed":121379,"trial_index":1,"trial_type":"html","block":"consent","url":"../views/src/external/consent.html","rt":8267},{"condition":0,"session":"expert","experiment":"experiment","subject":"PPACF","internal_node_id":"0.0-2.0","time_elapsed":139837,"trial_index":2,"trial_type":"survey-text","block":"codes","responses":"{\"Q0\":\"expert\",\"Q1\":\"0\"}","rt":17453},{"condition":0,"session":"expert","experiment":"experiment","subject":"PPACF","internal_node_id":"0.0-3.0","time_elapsed":192119,"trial_index":3,"trial_type":"html","block":"instructions_lab","url":"../views/src/external/instructions_lab.html","rt":51137},{"condition":0,"session":"expert","experiment":"experiment","subject":"PPACF","internal_node_id":"0.0-4.0","time_elapsed":214928,"trial_index":4,"trial_type":"single-stim","block":"scenario-one","key_press":13,"stimulus":"img/longmire.png","rt":21808},{"block":"linear_scaffolded","helps":0,"clicked":[["answer","clicked"],["A ","false"],["M ","false"],["D ","false"],["N ","false"],["B ","false"],["F ","false"],["H ","false"],["G ","false"],["O ","false"],["C ","false"],["J ","false"],["I ","false"],["E ","false"],["L ","false"],["K ","false"]],"answer":["C","D","L"],"correct":1,"scaffold":"none","question":"start","scenario":"longmire","graph":"linear","condition":0,"session":"expert","experiment":"experiment","subject":"PPACF","internal_node_id":"0.0-5.0-0.0","time_elapsed":259341,"trial_index":5,"trial_type":"html","url":"../views/src/external/stimulus.html","rt":43060},{"block":"linear_scaffolded","helps":0,"clicked":[["answer","clicked"],["A ","false"],["M ","false"],["D ","false"],["N ","false"],["B ","false"],["F ","false"],["H ","false"],["G ","false"],["O ","false"],["C ","false"],["J ","false"],["I ","false"],["E ","false"],["L ","false"],["K ","false"]],"answer":["H","J","K","L","O"],"correct":0,"scaffold":"none","question":"end","scenario":"longmire","graph":"linear","condition":0,"session":"expert","experiment":"experiment","subject":"PPACF","internal_node_id":"0.0-5.0-1.0","time_elapsed":393841,"trial_index":6,"trial_type":"html","url":"../views/src/external/stimulus.html","rt":133235},{"block":"linear_scaffolded","helps":0,"clicked":[["answer","clicked"],["A ","false"],["M ","false"],["D ","false"],["N ","false"],["B ","false"],["F ","false"],["H ","false"],["G ","false"],["O ","false"],["C ","false"],["J ","false"],["I ","false"],["E ","false"],["L ","false"],["K ","false"]],"answer":["G","O"],"correct":1,"scaffold":"none","question":"duration","scenario":"longmire","graph":"linear","condition":0,"session":"expert","experiment":"experiment","subject":"PPACF","internal_node_id":"0.0-5.0-2.0","time_elapsed":431263,"trial_index":7,"trial_type":"html","url":"../views/src/external/stimulus.html","rt":36068},{"block":"linear_scaffolded","helps":0,"clicked":[["answer","clicked"],["A ","false"],["M ","false"],["D ","false"],["N ","false"],["B ","false"],["F ","false"],["H ","false"],["G ","false"],["O ","false"],["C ","false"],["J ","false"],["I ","false"],["E ","false"],["L ","false"],["K ","false"]],"answer":["1"],"correct":1,"scaffold":"none","question":"midpoint","scenario":"longmire","graph":"linear","condition":0,"session":"expert","experiment":"experiment","subject":"PPACF","internal_node_id":"0.0-5.0-3.0","time_elapsed":457486,"trial_index":8,"trial_type":"html","url":"../views/src/external/stimulus.html","rt":24954},{"block":"linear_scaffolded","helps":0,"clicked":[["answer","clicked"],["A ","false"],["M ","false"],["D ","false"],["N ","false"],["B ","false"],["F ","false"],["H ","false"],["G ","false"],["O ","false"],["C ","false"],["J ","false"],["I ","false"],["E ","false"],["L ","false"],["K ","false"]],"answer":["A"],"correct":1,"scaffold":"none","question":"start+overlap","scenario":"longmire","graph":"linear","condition":0,"session":"expert","experiment":"experiment","subject":"PPACF","internal_node_id":"0.0-5.0-4.0","time_elapsed":496311,"trial_index":9,"trial_type":"html","url":"../views/src/external/stimulus.html","rt":37551},{"block":"linear_testing","helps":0,"clicked":[["answer","clicked"],["A ","false"],["M ","false"],["D ","false"],["N ","false"],["B ","false"],["F ","false"],["H ","false"],["G ","false"],["O ","false"],["C ","false"],["J ","false"],["I ","false"],["E ","false"],["L ","false"],["K ","false"]],"answer":["6","8"],"correct":1,"scaffold":"none","question":"starts","scenario":"longmire","graph":"linear","condition":0,"session":"expert","experiment":"experiment","subject":"PPACF","internal_node_id":"0.0-6.0-5.0","time_elapsed":558902,"trial_index":10,"trial_type":"html","url":"../views/src/external/stimulus.html","rt":61322},{"block":"linear_testing","helps":0,"clicked":[["answer","clicked"],["A ","false"],["M ","false"],["D ","false"],["N ","false"],["B ","false"],["F ","false"],["H ","false"],["G ","false"],["O ","false"],["C ","false"],["J ","false"],["I ","false"],["E ","false"],["L ","false"],["K ","false"]],"answer":["E","K","L"],"correct":0,"scaffold":"none","question":"during+overlap","scenario":"longmire","graph":"linear","condition":0,"session":"expert","experiment":"experiment","subject":"PPACF","internal_node_id":"0.0-6.0-3.0","time_elapsed":672639,"trial_index":11,"trial_type":"html","url":"../views/src/external/stimulus.html","rt":112374},{"block":"linear_testing","helps":0,"clicked":[["answer","clicked"],["A ","false"],["M ","false"],["D ","false"],["N ","false"],["B ","false"],["F ","false"],["H ","false"],["G ","false"],["O ","false"],["C ","false"],["J ","false"],["I ","false"],["E ","false"],["L ","false"],["K ","false"]],"answer":["A","B","C","D","F","I"],"correct":1,"scaffold":"none","question":"before+overlap","scenario":"longmire","graph":"linear","condition":0,"session":"expert","experiment":"experiment","subject":"PPACF","internal_node_id":"0.0-6.0-1.0","time_elapsed":766828,"trial_index":12,"trial_type":"html","url":"../views/src/external/stimulus.html","rt":92826},{"block":"linear_testing","helps":0,"clicked":[["answer","clicked"],["A ","false"],["M ","false"],["D ","false"],["N ","false"],["B ","false"],["F ","false"],["H ","false"],["G ","false"],["O ","false"],["C ","false"],["J ","false"],["I ","false"],["E ","false"],["L ","false"],["K ","false"]],"answer":["O"],"correct":1,"scaffold":"none","question":"meets","scenario":"longmire","graph":"linear","condition":0,"session":"expert","experiment":"experiment","subject":"PPACF","internal_node_id":"0.0-6.0-8.0","time_elapsed":802080,"trial_index":13,"trial_type":"html","url":"../views/src/external/stimulus.html","rt":33908},{"block":"linear_testing","helps":0,"clicked":[["answer","clicked"],["A ","false"],["M ","false"],["D ","false"],["N ","false"],["B ","false"],["F ","false"],["H ","false"],["G ","false"],["O ","false"],["C ","false"],["J ","false"],["I ","false"],["E ","false"],["L ","false"],["K ","false"]],"answer":["A","M","N"],"correct":1,"scaffold":"none","question":"overlap+overlap","scenario":"longmire","graph":"linear","condition":0,"session":"expert","experiment":"experiment","subject":"PPACF","internal_node_id":"0.0-6.0-2.0","time_elapsed":874067,"trial_index":14,"trial_type":"html","url":"../views/src/external/stimulus.html","rt":70731},{"block":"linear_testing","helps":0,"clicked":[["answer","clicked"],["A ","false"],["M ","false"],["D ","false"],["N ","false"],["B ","false"],["F ","false"],["H ","false"],["G ","false"],["O ","false"],["C ","false"],["J ","false"],["I ","false"],["E ","false"],["L ","false"],["K ","false"]],"answer":["A","B","D","F"],"correct":1,"scaffold":"none","question":"start+duration","scenario":"longmire","graph":"linear","condition":0,"session":"expert","experiment":"experiment","subject":"PPACF","internal_node_id":"0.0-6.0-0.0","time_elapsed":964721,"trial_index":15,"trial_type":"html","url":"../views/src/external/stimulus.html","rt":89288},{"block":"linear_testing","helps":0,"clicked":[["answer","clicked"],["A ","false"],["M ","false"],["D ","false"],["N ","false"],["B ","false"],["F ","false"],["H ","false"],["G ","false"],["O ","false"],["C ","false"],["J ","false"],["I ","false"],["E ","false"],["L ","false"],["K ","false"]],"answer":["C"],"correct":1,"scaffold":"none","question":"starts+finishes","scenario":"longmire","graph":"linear","condition":0,"session":"expert","experiment":"experiment","subject":"PPACF","internal_node_id":"0.0-6.0-9.0","time_elapsed":982597,"trial_index":16,"trial_type":"html","url":"../views/src/external/stimulus.html","rt":16222},{"block":"linear_testing","helps":0,"clicked":[["answer","clicked"],["A ","false"],["M ","false"],["D ","false"],["N ","false"],["B ","false"],["F ","false"],["H ","false"],["G ","false"],["O ","false"],["C ","false"],["J ","false"],["I ","false"],["E ","false"],["L ","false"],["K ","false"]],"answer":["G","O"],"correct":1,"scaffold":"none","question":"contain+duration","scenario":"longmire","graph":"linear","condition":0,"session":"expert","experiment":"experiment","subject":"PPACF","internal_node_id":"0.0-6.0-4.0","time_elapsed":1018540,"trial_index":17,"trial_type":"html","url":"../views/src/external/stimulus.html","rt":34684},{"block":"linear_testing","helps":0,"clicked":[["answer","clicked"],["A ","false"],["M ","false"],["D ","false"],["N ","false"],["B ","false"],["F ","false"],["H ","false"],["G ","false"],["O ","false"],["C ","false"],["J ","false"],["I ","false"],["E ","false"],["L ","false"],["K ","false"]],"answer":["4","5"],"correct":1,"scaffold":"none","question":"finishes","scenario":"longmire","graph":"linear","condition":0,"session":"expert","experiment":"experiment","subject":"PPACF","internal_node_id":"0.0-6.0-6.0","time_elapsed":1087610,"trial_index":18,"trial_type":"html","url":"../views/src/external/stimulus.html","rt":67788},{"block":"linear_testing","helps":0,"clicked":[["answer","clicked"],["A ","false"],["M ","false"],["D ","false"],["N ","false"],["B ","false"],["F ","false"],["H ","false"],["G ","false"],["O ","false"],["C ","false"],["J ","false"],["I ","false"],["E ","false"],["L ","false"],["K ","false"]],"answer":["B","D","F","G"],"correct":0,"scaffold":"none","question":"during","scenario":"longmire","graph":"linear","condition":0,"session":"expert","experiment":"experiment","subject":"PPACF","internal_node_id":"0.0-6.0-7.0","time_elapsed":1250722,"trial_index":19,"trial_type":"html","url":"../views/src/external/stimulus.html","rt":161774},{"condition":0,"session":"expert","experiment":"experiment","subject":"PPACF","internal_node_id":"0.0-7.0","time_elapsed":1286443,"trial_index":20,"trial_type":"single-stim","block":"scenario-two","key_press":13,"stimulus":"img/axis.png","rt":34719},{"block":"triangular_scaffolded","helps":0,"clicked":[["answer","clicked"],["M ","false"],["B ","false"],["J ","false"],["N ","false"],["D ","false"],["O ","false"],["K ","false"],["C ","false"],["F ","false"],["I ","false"],["H ","false"],["G ","false"],["L ","false"],["E ","false"],["A ","false"]],"answer":["C","H"],"correct":0,"scaffold":"none","question":"start","scenario":"axis","graph":"triangular","condition":0,"session":"expert","experiment":"experiment","subject":"PPACF","internal_node_id":"0.0-8.0-0.0","time_elapsed":1329491,"trial_index":21,"trial_type":"html","url":"../views/src/external/stimulus.html","rt":41757},{"block":"triangular_scaffolded","helps":0,"clicked":[["answer","clicked"],["M ","false"],["B ","false"],["J ","false"],["N ","false"],["D ","false"],["O ","false"],["K ","false"],["C ","false"],["F ","false"],["I ","false"],["H ","false"],["G ","false"],["L ","false"],["E ","false"],["A ","false"]],"answer":["4"],"correct":1,"scaffold":"none","question":"end","scenario":"axis","graph":"triangular","condition":0,"session":"expert","experiment":"experiment","subject":"PPACF","internal_node_id":"0.0-8.0-1.0","time_elapsed":1343413,"trial_index":22,"trial_type":"html","url":"../views/src/external/stimulus.html","rt":12553},{"block":"triangular_scaffolded","helps":0,"clicked":[["answer","clicked"],["M ","false"],["B ","false"],["J ","false"],["N ","false"],["D ","false"],["O ","false"],["K ","false"],["C ","false"],["F ","false"],["I ","false"],["H ","false"],["G ","false"],["L ","false"],["E ","false"],["A ","false"]],"answer":["A","C","E","F","G","K","L"],"correct":0,"scaffold":"none","question":"duration","scenario":"axis","graph":"triangular","condition":0,"session":"expert","experiment":"experiment","subject":"PPACF","internal_node_id":"0.0-8.0-2.0","time_elapsed":1424600,"trial_index":23,"trial_type":"html","url":"../views/src/external/stimulus.html","rt":79911},{"block":"triangular_scaffolded","helps":0,"clicked":[["answer","clicked"],["M ","false"],["B ","false"],["J ","false"],["N ","false"],["D ","false"],["O ","false"],["K ","false"],["C ","false"],["F ","false"],["I ","false"],["H ","false"],["G ","false"],["L ","false"],["E ","false"],["A ","false"]],"answer":["8"],"correct":1,"scaffold":"none","question":"midpoint","scenario":"axis","graph":"triangular","condition":0,"session":"expert","experiment":"experiment","subject":"PPACF","internal_node_id":"0.0-8.0-3.0","time_elapsed":1520497,"trial_index":24,"trial_type":"html","url":"../views/src/external/stimulus.html","rt":94518},{"block":"triangular_scaffolded","helps":0,"clicked":[["answer","clicked"],["M ","false"],["B ","false"],["J ","false"],["N ","false"],["D ","false"],["O ","false"],["K ","false"],["C ","false"],["F ","false"],["I ","false"],["H ","false"],["G ","false"],["L ","false"],["E ","false"],["A ","false"]],"answer":["12"],"correct":0,"scaffold":"none","question":"start+overlap","scenario":"axis","graph":"triangular","condition":0,"session":"expert","experiment":"experiment","subject":"PPACF","internal_node_id":"0.0-8.0-4.0","time_elapsed":1564355,"trial_index":25,"trial_type":"html","url":"../views/src/external/stimulus.html","rt":42514},{"block":"triangular_testing","helps":0,"answer":["A"],"clicked":[["answer","clicked"],["M ","false"],["B ","false"],["J ","false"],["N ","false"],["D ","false"],["O ","false"],["K ","false"],["C ","false"],["F ","false"],["I ","false"],["H ","false"],["G ","false"],["L ","false"],["E ","false"],["A ","false"]],"correct":1,"scaffold":"none","question":"during+overlap","scenario":"axis","graph":"triangular","condition":0,"session":"expert","experiment":"experiment","subject":"PPACF","internal_node_id":"0.0-9.0-3.0","time_elapsed":1630803,"trial_index":26,"trial_type":"html","url":"../views/src/external/stimulus.html","rt":65053},{"block":"triangular_testing","helps":0,"answer":["B","J"],"clicked":[["answer","clicked"],["M ","false"],["B ","false"],["J ","false"],["N ","false"],["D ","false"],["O ","false"],["K ","false"],["C ","false"],["F ","false"],["I ","false"],["H ","false"],["G ","false"],["L ","false"],["E ","false"],["A ","false"]],"correct":0,"scaffold":"none","question":"overlap+overlap","scenario":"axis","graph":"triangular","condition":0,"session":"expert","experiment":"experiment","subject":"PPACF","internal_node_id":"0.0-9.0-2.0","time_elapsed":1659631,"trial_index":27,"trial_type":"html","url":"../views/src/external/stimulus.html","rt":27470},{"block":"triangular_testing","helps":0,"answer":["6"],"clicked":[["answer","clicked"],["M ","false"],["B ","false"],["J ","false"],["N ","false"],["D ","false"],["O ","false"],["K ","false"],["C ","false"],["F ","false"],["I ","false"],["H ","false"],["G ","false"],["L ","false"],["E ","false"],["A ","false"]],"correct":1,"scaffold":"none","question":"starts","scenario":"axis","graph":"triangular","condition":0,"session":"expert","experiment":"experiment","subject":"PPACF","internal_node_id":"0.0-9.0-5.0","time_elapsed":1687411,"trial_index":28,"trial_type":"html","url":"../views/src/external/stimulus.html","rt":26508},{"block":"triangular_testing","helps":0,"answer":["9"],"clicked":[["answer","clicked"],["M ","false"],["B ","false"],["J ","false"],["N ","false"],["D ","false"],["O ","false"],["K ","false"],["C ","false"],["F ","false"],["I ","false"],["H ","false"],["G ","false"],["L ","false"],["E ","false"],["A ","false"]],"correct":1,"scaffold":"none","question":"start+duration","scenario":"axis","graph":"triangular","condition":0,"session":"expert","experiment":"experiment","subject":"PPACF","internal_node_id":"0.0-9.0-0.0","time_elapsed":1717124,"trial_index":29,"trial_type":"html","url":"../views/src/external/stimulus.html","rt":28436},{"block":"triangular_testing","helps":0,"answer":["C","G"],"clicked":[["answer","clicked"],["M ","false"],["B ","false"],["J ","false"],["N ","false"],["D ","false"],["O ","false"],["K ","false"],["C ","false"],["F ","false"],["I ","false"],["H ","false"],["G ","false"],["L ","false"],["E ","false"],["A ","false"]],"correct":0,"scaffold":"none","question":"finishes","scenario":"axis","graph":"triangular","condition":0,"session":"expert","experiment":"experiment","subject":"PPACF","internal_node_id":"0.0-9.0-6.0","time_elapsed":1734525,"trial_index":30,"trial_type":"html","url":"../views/src/external/stimulus.html","rt":16128},{"block":"triangular_testing","helps":0,"answer":["G"],"clicked":[["answer","clicked"],["M ","false"],["B ","false"],["J ","false"],["N ","false"],["D ","false"],["O ","false"],["K ","false"],["C ","false"],["F ","false"],["I ","false"],["H ","false"],["G ","false"],["L ","false"],["E ","false"],["A ","false"]],"correct":1,"scaffold":"none","question":"starts+finishes","scenario":"axis","graph":"triangular","condition":0,"session":"expert","experiment":"experiment","subject":"PPACF","internal_node_id":"0.0-9.0-9.0","time_elapsed":1751857,"trial_index":31,"trial_type":"html","url":"../views/src/external/stimulus.html","rt":16058},{"block":"triangular_testing","helps":0,"answer":["D","M","N"],"clicked":[["answer","clicked"],["M ","false"],["B ","false"],["J ","false"],["N ","false"],["D ","false"],["O ","false"],["K ","false"],["C ","false"],["F ","false"],["I ","false"],["H ","false"],["G ","false"],["L ","false"],["E ","false"],["A ","false"]],"correct":0,"scaffold":"none","question":"contain+duration","scenario":"axis","graph":"triangular","condition":0,"session":"expert","experiment":"experiment","subject":"PPACF","internal_node_id":"0.0-9.0-4.0","time_elapsed":1821002,"trial_index":32,"trial_type":"html","url":"../views/src/external/stimulus.html","rt":67868},{"block":"triangular_testing","helps":0,"answer":["J","M","O"],"clicked":[["answer","clicked"],["M ","false"],["B ","false"],["J ","false"],["N ","false"],["D ","false"],["O ","false"],["K ","false"],["C ","false"],["F ","false"],["I ","false"],["H ","false"],["G ","false"],["L ","false"],["E ","false"],["A ","false"]],"correct":0,"scaffold":"none","question":"meets","scenario":"axis","graph":"triangular","condition":0,"session":"expert","experiment":"experiment","subject":"PPACF","internal_node_id":"0.0-9.0-8.0","time_elapsed":1894164,"trial_index":33,"trial_type":"html","url":"../views/src/external/stimulus.html","rt":71806},{"block":"triangular_testing","helps":0,"answer":["C","F","M"],"clicked":[["answer","clicked"],["M ","false"],["B ","false"],["J ","false"],["N ","false"],["D ","false"],["O ","false"],["K ","false"],["C ","false"],["F ","false"],["I ","false"],["H ","false"],["G ","false"],["L ","false"],["E ","false"],["A ","false"]],"correct":0,"scaffold":"none","question":"during","scenario":"axis","graph":"triangular","condition":0,"session":"expert","experiment":"experiment","subject":"PPACF","internal_node_id":"0.0-9.0-7.0","time_elapsed":1921785,"trial_index":34,"trial_type":"html","url":"../views/src/external/stimulus.html","rt":26271},{"block":"triangular_testing","helps":0,"answer":["F","G","J","M","O"],"clicked":[["answer","clicked"],["M ","false"],["B ","false"],["J ","false"],["N ","false"],["D ","false"],["O ","false"],["K ","false"],["C ","false"],["F ","false"],["I ","false"],["H ","false"],["G ","false"],["L ","false"],["E ","false"],["A ","false"]],"correct":0,"scaffold":"none","question":"before+overlap","scenario":"axis","graph":"triangular","condition":0,"session":"expert","experiment":"experiment","subject":"PPACF","internal_node_id":"0.0-9.0-1.0","time_elapsed":2002516,"trial_index":35,"trial_type":"html","url":"../views/src/external/stimulus.html","rt":79400},{"condition":0,"session":"expert","experiment":"experiment","subject":"PPACF","internal_node_id":"0.0-10.0","time_elapsed":2010449,"trial_index":36,"trial_type":"single-stim","block":"scenario-draw","key_press":13,"stimulus":"img/jones.png","rt":6931},{"condition":0,"session":"expert","experiment":"experiment","subject":"PPACF","internal_node_id":"0.0-11.0","time_elapsed":2088686,"trial_index":37,"trial_type":"html","block":"instructions_drawing","url":"../views/src/external/instructions_draw.html","rt":77149},{"block":"drawingTest","clicked":[["answer","clicked"]],"answer":[],"correct":0,"scaffold":"none","question":"duration","scenario":"jones","graph":"none","condition":0,"session":"expert","experiment":"experiment","subject":"PPACF","internal_node_id":"0.0-12.0","time_elapsed":2125029,"trial_index":38,"trial_type":"html","url":"../views/src/external/stimulus.html","rt":34984},{"block":"drawingTest","clicked":[["answer","clicked"]],"answer":["Chris","3-4pm"],"correct":1,"scaffold":"none","question":"overlap","scenario":"jones","graph":"none","condition":0,"session":"expert","experiment":"experiment","subject":"PPACF","internal_node_id":"0.0-13.0","time_elapsed":2215335,"trial_index":39,"trial_type":"html","url":"../views/src/external/stimulus.html","rt":89041},{"condition":0,"session":"expert","experiment":"experiment","subject":"PPACF","internal_node_id":"0.0-14.0","time_elapsed":2233152,"trial_index":40,"trial_type":"survey-text","block":"demo-1","responses":"{\"Q0\":\"22\",\"Q1\":\"Taiwan\"}","rt":16814},{"condition":0,"session":"expert","experiment":"experiment","subject":"PPACF","internal_node_id":"0.0-15.0","time_elapsed":2254098,"trial_index":41,"trial_type":"survey-multi-choice","block":"demo-2","responses":"{\"Q0\":\"Mandarin or Cantonese\",\"Q1\":\"Fourth\",\"Q2\":\"Social Sciences (incl. CogSci)\",\"Q3\":\"Female\",\"Q4\":\"the second one (triangular)\"}","rt":19933},{"condition":0,"session":"expert","experiment":"experiment","subject":"PPACF","internal_node_id":"0.0-16.0","time_elapsed":2261980,"trial_index":42,"trial_type":"html","block":"debrief","url":"../views/src/external/debrief.html","rt":6686}],"__v":0}
{"_id":{"$oid":"58f7bcb14e5af600040f371c"},"data":[{"condition":0,"session":"expert","experiment":"experiment","subject":"Y07OR","internal_node_id":"0.0-0.0","time_elapsed":18436,"trial_index":0,"trial_type":"single-stim","block":"phone","key_press":32,"stimulus":"img/phone.png","rt":18431},{"condition":0,"session":"expert","experiment":"experiment","subject":"Y07OR","internal_node_id":"0.0-1.0","time_elapsed":27494,"trial_index":1,"trial_type":"html","block":"consent","url":"../views/src/external/consent.html","rt":7960},{"condition":0,"session":"expert","experiment":"experiment","subject":"Y07OR","internal_node_id":"0.0-2.0","time_elapsed":32223,"trial_index":2,"trial_type":"survey-text","block":"codes","responses":"{\"Q0\":\"expert\",\"Q1\":\"0\"}","rt":3721},{"condition":0,"session":"expert","experiment":"experiment","subject":"Y07OR","internal_node_id":"0.0-3.0","time_elapsed":58893,"trial_index":3,"trial_type":"html","block":"instructions_lab","url":"../views/src/external/instructions_lab.html","rt":25572},{"condition":0,"session":"expert","experiment":"experiment","subject":"Y07OR","internal_node_id":"0.0-4.0","time_elapsed":62321,"trial_index":4,"trial_type":"single-stim","block":"scenario-one","key_press":32,"stimulus":"img/axis.png","rt":2425},{"block":"linear_scaffolded","helps":0,"clicked":[["answer","clicked"],["M ","false"],["B ","false"],["J ","false"],["N ","false"],["D ","false"],["O ","false"],["K ","false"],["C ","false"],["F ","false"],["I ","false"],["H ","false"],["G ","false"],["L ","false"],["E ","false"],["A ","false"]],"answer":["H","O"],"correct":1,"scaffold":"none","question":"start","scenario":"axis","graph":"linear","condition":0,"session":"expert","experiment":"experiment","subject":"Y07OR","internal_node_id":"0.0-5.0-0.0","time_elapsed":84911,"trial_index":5,"trial_type":"html","url":"../views/src/external/stimulus.html","rt":21187},{"block":"linear_scaffolded","helps":0,"clicked":[["answer","clicked"],["M ","false"],["B ","false"],["J ","false"],["N ","false"],["D ","false"],["O ","false"],["K ","false"],["C ","false"],["F ","false"],["I ","false"],["H ","false"],["G ","false"],["L ","false"],["E ","false"],["A ","false"]],"answer":["4"],"correct":1,"scaffold":"none","question":"end","scenario":"axis","graph":"linear","condition":0,"session":"expert","experiment":"experiment","subject":"Y07OR","internal_node_id":"0.0-5.0-1.0","time_elapsed":96413,"trial_index":6,"trial_type":"html","url":"../views/src/external/stimulus.html","rt":10215},{"block":"linear_scaffolded","helps":0,"clicked":[["answer","clicked"],["M ","false"],["B ","false"],["J ","false"],["N ","false"],["D ","false"],["O ","false"],["K ","false"],["C ","false"],["F ","false"],["I ","false"],["H ","false"],["G ","false"],["L ","false"],["E ","false"],["A ","false"]],"answer":["A","C","E","F","G","H","I","K","L"],"correct":1,"scaffold":"none","question":"duration","scenario":"axis","graph":"linear","condition":0,"session":"expert","experiment":"experiment","subject":"Y07OR","internal_node_id":"0.0-5.0-2.0","time_elapsed":130679,"trial_index":7,"trial_type":"html","url":"../views/src/external/stimulus.html","rt":32981},{"block":"linear_scaffolded","helps":0,"clicked":[["answer","clicked"],["M ","false"],["B ","false"],["J ","false"],["N ","false"],["D ","false"],["O ","false"],["K ","false"],["C ","false"],["F ","false"],["I ","false"],["H ","false"],["G ","false"],["L ","false"],["E ","false"],["A ","false"]],"answer":["8"],"correct":1,"scaffold":"none","question":"midpoint","scenario":"axis","graph":"linear","condition":0,"session":"expert","experiment":"experiment","subject":"Y07OR","internal_node_id":"0.0-5.0-3.0","time_elapsed":161993,"trial_index":8,"trial_type":"html","url":"../views/src/external/stimulus.html","rt":30005},{"block":"linear_scaffolded","helps":0,"clicked":[["answer","clicked"],["M ","false"],["B ","false"],["J ","false"],["N ","false"],["D ","false"],["O ","false"],["K ","false"],["C ","false"],["F ","false"],["I ","false"],["H ","false"],["G ","false"],["L ","false"],["E ","false"],["A ","false"]],"answer":["8"],"correct":0,"scaffold":"none","question":"start+overlap","scenario":"axis","graph":"linear","condition":0,"session":"expert","experiment":"experiment","subject":"Y07OR","internal_node_id":"0.0-5.0-4.0","time_elapsed":188949,"trial_index":9,"trial_type":"html","url":"../views/src/external/stimulus.html","rt":25680},{"block":"linear_testing","helps":0,"clicked":[["answer","clicked"],["M ","false"],["B ","false"],["J ","false"],["N ","false"],["D ","false"],["O ","false"],["K ","false"],["C ","false"],["F ","false"],["I ","false"],["H ","false"],["G ","false"],["L ","false"],["E ","false"],["A ","false"]],"answer":["C","F"],"correct":0,"scaffold":"none","question":"overlap+overlap","scenario":"axis","graph":"linear","condition":0,"session":"expert","experiment":"experiment","subject":"Y07OR","internal_node_id":"0.0-6.0-2.0","time_elapsed":199216,"trial_index":10,"trial_type":"html","url":"../views/src/external/stimulus.html","rt":8984},{"block":"linear_testing","helps":0,"clicked":[["answer","clicked"],["M ","false"],["B ","false"],["J ","false"],["N ","false"],["D ","false"],["O ","false"],["K ","false"],["C ","false"],["F ","false"],["I ","false"],["H ","false"],["G ","false"],["L ","false"],["E ","false"],["A ","false"]],"answer":["G"],"correct":1,"scaffold":"none","question":"starts+finishes","scenario":"axis","graph":"linear","condition":0,"session":"expert","experiment":"experiment","subject":"Y07OR","internal_node_id":"0.0-6.0-9.0","time_elapsed":219907,"trial_index":11,"trial_type":"html","url":"../views/src/external/stimulus.html","rt":19404},{"block":"linear_testing","helps":0,"clicked":[["answer","clicked"],["M ","false"],["B ","false"],["J ","false"],["N ","false"],["D ","false"],["O ","false"],["K ","false"],["C ","false"],["F ","false"],["I ","false"],["H ","false"],["G ","false"],["L ","false"],["E ","false"],["A ","false"]],"answer":["D","N","O"],"correct":0,"scaffold":"none","question":"contain+duration","scenario":"axis","graph":"linear","condition":0,"session":"expert","experiment":"experiment","subject":"Y07OR","internal_node_id":"0.0-6.0-4.0","time_elapsed":241353,"trial_index":12,"trial_type":"html","url":"../views/src/external/stimulus.html","rt":20112},{"block":"linear_testing","helps":0,"clicked":[["answer","clicked"],["M ","false"],["B ","false"],["J ","false"],["N ","false"],["D ","false"],["O ","false"],["K ","false"],["C ","false"],["F ","false"],["I ","false"],["H ","false"],["G ","false"],["L ","false"],["E ","false"],["A ","false"]],"answer":["4"],"correct":0,"scaffold":"none","question":"start+duration","scenario":"axis","graph":"linear","condition":0,"session":"expert","experiment":"experiment","subject":"Y07OR","internal_node_id":"0.0-6.0-0.0","time_elapsed":268132,"trial_index":13,"trial_type":"html","url":"../views/src/external/stimulus.html","rt":25491},{"block":"linear_testing","helps":0,"clicked":[["answer","clicked"],["M ","false"],["B ","false"],["J ","false"],["N ","false"],["D ","false"],["O ","false"],["K ","false"],["C ","false"],["F ","false"],["I ","false"],["H ","false"],["G ","false"],["L ","false"],["E ","false"],["A ","false"]],"answer":["F","O"],"correct":0,"scaffold":"none","question":"during","scenario":"axis","graph":"linear","condition":0,"session":"expert","experiment":"experiment","subject":"Y07OR","internal_node_id":"0.0-6.0-7.0","time_elapsed":287494,"trial_index":14,"trial_type":"html","url":"../views/src/external/stimulus.html","rt":18075},{"block":"linear_testing","helps":0,"clicked":[["answer","clicked"],["M ","false"],["B ","false"],["J ","false"],["N ","false"],["D ","false"],["O ","false"],["K ","false"],["C ","false"],["F ","false"],["I ","false"],["H ","false"],["G ","false"],["L ","false"],["E ","false"],["A ","false"]],"answer":["5"],"correct":0,"scaffold":"none","question":"starts","scenario":"axis","graph":"linear","condition":0,"session":"expert","experiment":"experiment","subject":"Y07OR","internal_node_id":"0.0-6.0-5.0","time_elapsed":332025,"trial_index":15,"trial_type":"html","url":"../views/src/external/stimulus.html","rt":43212},{"block":"linear_testing","helps":0,"clicked":[["answer","clicked"],["M ","false"],["B ","false"],["J ","false"],["N ","false"],["D ","false"],["O ","false"],["K ","false"],["C ","false"],["F ","false"],["I ","false"],["H ","false"],["G ","false"],["L ","false"],["E ","false"],["A ","false"]],"answer":["A"],"correct":1,"scaffold":"none","question":"during+overlap","scenario":"axis","graph":"linear","condition":0,"session":"expert","experiment":"experiment","subject":"Y07OR","internal_node_id":"0.0-6.0-3.0","time_elapsed":363003,"trial_index":16,"trial_type":"html","url":"../views/src/external/stimulus.html","rt":29695},{"block":"linear_testing","helps":0,"clicked":[["answer","clicked"],["M ","false"],["B ","false"],["J ","false"],["N ","false"],["D ","false"],["O ","false"],["K ","false"],["C ","false"],["F ","false"],["I ","false"],["H ","false"],["G ","false"],["L ","false"],["E ","false"],["A ","false"]],"answer":["G"],"correct":1,"scaffold":"none","question":"meets","scenario":"axis","graph":"linear","condition":0,"session":"expert","experiment":"experiment","subject":"Y07OR","internal_node_id":"0.0-6.0-8.0","time_elapsed":386219,"trial_index":17,"trial_type":"html","url":"../views/src/external/stimulus.html","rt":21929},{"block":"linear_testing","helps":0,"clicked":[["answer","clicked"],["M ","false"],["B ","false"],["J ","false"],["N ","false"],["D ","false"],["O ","false"],["K ","false"],["C ","false"],["F ","false"],["I ","false"],["H ","false"],["G ","false"],["L ","false"],["E ","false"],["A ","false"]],"answer":["F","G","O"],"correct":0,"scaffold":"none","question":"before+overlap","scenario":"axis","graph":"linear","condition":0,"session":"expert","experiment":"experiment","subject":"Y07OR","internal_node_id":"0.0-6.0-1.0","time_elapsed":420528,"trial_index":18,"trial_type":"html","url":"../views/src/external/stimulus.html","rt":33024},{"block":"linear_testing","helps":0,"clicked":[["answer","clicked"],["M ","false"],["B ","false"],["J ","false"],["N ","false"],["D ","false"],["O ","false"],["K ","false"],["C ","false"],["F ","false"],["I ","false"],["H ","false"],["G ","false"],["L ","false"],["E ","false"],["A ","false"]],"answer":["G","O"],"correct":1,"scaffold":"none","question":"finishes","scenario":"axis","graph":"linear","condition":0,"session":"expert","experiment":"experiment","subject":"Y07OR","internal_node_id":"0.0-6.0-6.0","time_elapsed":453000,"trial_index":19,"trial_type":"html","url":"../views/src/external/stimulus.html","rt":31188},{"condition":0,"session":"expert","experiment":"experiment","subject":"Y07OR","internal_node_id":"0.0-7.0","time_elapsed":462938,"trial_index":20,"trial_type":"single-stim","block":"scenario-two","key_press":32,"stimulus":"img/longmire.png","rt":8929},{"block":"triangular_scaffolded","helps":0,"clicked":[["answer","clicked"],["A ","false"],["M ","false"],["D ","false"],["N ","false"],["B ","false"],["F ","false"],["H ","false"],["G ","false"],["O ","false"],["C ","false"],["J ","false"],["I ","false"],["E ","false"],["L ","false"],["K ","false"]],"answer":["C","D","L"],"correct":1,"scaffold":"none","question":"start","scenario":"longmire","graph":"triangular","condition":0,"session":"expert","experiment":"experiment","subject":"Y07OR","internal_node_id":"0.0-8.0-0.0","time_elapsed":477285,"trial_index":21,"trial_type":"html","url":"../views/src/external/stimulus.html","rt":13051},{"block":"triangular_scaffolded","helps":0,"clicked":[["answer","clicked"],["A ","false"],["M ","false"],["D ","false"],["N ","false"],["B ","false"],["F ","false"],["H ","false"],["G ","false"],["O ","false"],["C ","false"],["J ","false"],["I ","false"],["E ","false"],["L ","false"],["K ","false"]],"answer":["H","J","K","L","M","N","O"],"correct":1,"scaffold":"none","question":"end","scenario":"longmire","graph":"triangular","condition":0,"session":"expert","experiment":"experiment","subject":"Y07OR","internal_node_id":"0.0-8.0-1.0","time_elapsed":516298,"trial_index":22,"trial_type":"html","url":"../views/src/external/stimulus.html","rt":37728},{"block":"triangular_scaffolded","helps":0,"clicked":[["answer","clicked"],["A ","false"],["M ","false"],["D ","false"],["N ","false"],["B ","false"],["F ","false"],["H ","false"],["G ","false"],["O ","false"],["C ","false"],["J ","false"],["I ","false"],["E ","false"],["L ","false"],["K ","false"]],"answer":["G","O"],"correct":1,"scaffold":"none","question":"duration","scenario":"longmire","graph":"triangular","condition":0,"session":"expert","experiment":"experiment","subject":"Y07OR","internal_node_id":"0.0-8.0-2.0","time_elapsed":524045,"trial_index":23,"trial_type":"html","url":"../views/src/external/stimulus.html","rt":6438},{"block":"triangular_scaffolded","helps":0,"clicked":[["answer","clicked"],["A ","false"],["M ","false"],["D ","false"],["N ","false"],["B ","false"],["F ","false"],["H ","false"],["G ","false"],["O ","false"],["C ","false"],["J ","false"],["I ","false"],["E ","false"],["L ","false"],["K ","false"]],"answer":["1"],"correct":1,"scaffold":"none","question":"midpoint","scenario":"longmire","graph":"triangular","condition":0,"session":"expert","experiment":"experiment","subject":"Y07OR","internal_node_id":"0.0-8.0-3.0","time_elapsed":545004,"trial_index":24,"trial_type":"html","url":"../views/src/external/stimulus.html","rt":19610},{"block":"triangular_scaffolded","helps":0,"clicked":[["answer","clicked"],["A ","false"],["M ","false"],["D ","false"],["N ","false"],["B ","false"],["F ","false"],["H ","false"],["G ","false"],["O ","false"],["C ","false"],["J ","false"],["I ","false"],["E ","false"],["L ","false"],["K ","false"]],"answer":["A"],"correct":1,"scaffold":"none","question":"start+overlap","scenario":"longmire","graph":"triangular","condition":0,"session":"expert","experiment":"experiment","subject":"Y07OR","internal_node_id":"0.0-8.0-4.0","time_elapsed":572044,"trial_index":25,"trial_type":"html","url":"../views/src/external/stimulus.html","rt":25752},{"block":"triangular_testing","helps":0,"answer":["D","N"],"clicked":[["answer","clicked"],["A ","false"],["M ","false"],["D ","false"],["N ","false"],["B ","false"],["F ","false"],["H ","false"],["G ","false"],["O ","false"],["C ","false"],["J ","false"],["I ","false"],["E ","false"],["L ","false"],["K ","false"]],"correct":0,"scaffold":"none","question":"contain+duration","scenario":"longmire","graph":"triangular","condition":0,"session":"expert","experiment":"experiment","subject":"Y07OR","internal_node_id":"0.0-9.0-4.0","time_elapsed":651089,"trial_index":26,"trial_type":"html","url":"../views/src/external/stimulus.html","rt":77703},{"block":"triangular_testing","helps":0,"answer":["O"],"clicked":[["answer","clicked"],["A ","false"],["M ","false"],["D ","false"],["N ","false"],["B ","false"],["F ","false"],["H ","false"],["G ","false"],["O ","false"],["C ","false"],["J ","false"],["I ","false"],["E ","false"],["L ","false"],["K ","false"]],"correct":1,"scaffold":"none","question":"meets","scenario":"longmire","graph":"triangular","condition":0,"session":"expert","experiment":"experiment","subject":"Y07OR","internal_node_id":"0.0-9.0-8.0","time_elapsed":673210,"trial_index":27,"trial_type":"html","url":"../views/src/external/stimulus.html","rt":20751},{"block":"triangular_testing","helps":0,"answer":["A","M","N"],"clicked":[["answer","clicked"],["A ","false"],["M ","false"],["D ","false"],["N ","false"],["B ","false"],["F ","false"],["H ","false"],["G ","false"],["O ","false"],["C ","false"],["J ","false"],["I ","false"],["E ","false"],["L ","false"],["K ","false"]],"correct":1,"scaffold":"none","question":"overlap+overlap","scenario":"longmire","graph":"triangular","condition":0,"session":"expert","experiment":"experiment","subject":"Y07OR","internal_node_id":"0.0-9.0-2.0","time_elapsed":701553,"trial_index":28,"trial_type":"html","url":"../views/src/external/stimulus.html","rt":27051},{"block":"triangular_testing","helps":0,"answer":["A","B","C","D","F","I"],"clicked":[["answer","clicked"],["A ","false"],["M ","false"],["D ","false"],["N ","false"],["B ","false"],["F ","false"],["H ","false"],["G ","false"],["O ","false"],["C ","false"],["J ","false"],["I ","false"],["E ","false"],["L ","false"],["K ","false"]],"correct":1,"scaffold":"none","question":"before+overlap","scenario":"longmire","graph":"triangular","condition":0,"session":"expert","experiment":"experiment","subject":"Y07OR","internal_node_id":"0.0-9.0-1.0","time_elapsed":746285,"trial_index":29,"trial_type":"html","url":"../views/src/external/stimulus.html","rt":43442},{"block":"triangular_testing","helps":0,"answer":["M","N"],"clicked":[["answer","clicked"],["A ","false"],["M ","false"],["D ","false"],["N ","false"],["B ","false"],["F ","false"],["H ","false"],["G ","false"],["O ","false"],["C ","false"],["J ","false"],["I ","false"],["E ","false"],["L ","false"],["K ","false"]],"correct":0,"scaffold":"none","question":"during","scenario":"longmire","graph":"triangular","condition":0,"session":"expert","experiment":"experiment","subject":"Y07OR","internal_node_id":"0.0-9.0-7.0","time_elapsed":794588,"trial_index":30,"trial_type":"html","url":"../views/src/external/stimulus.html","rt":46997},{"block":"triangular_testing","helps":0,"answer":["K","L"],"clicked":[["answer","clicked"],["A ","false"],["M ","false"],["D ","false"],["N ","false"],["B ","false"],["F ","false"],["H ","false"],["G ","false"],["O ","false"],["C ","false"],["J ","false"],["I ","false"],["E ","false"],["L ","false"],["K ","false"]],"correct":1,"scaffold":"none","question":"during+overlap","scenario":"longmire","graph":"triangular","condition":0,"session":"expert","experiment":"experiment","subject":"Y07OR","internal_node_id":"0.0-9.0-3.0","time_elapsed":868704,"trial_index":31,"trial_type":"html","url":"../views/src/external/stimulus.html","rt":72819},{"block":"triangular_testing","helps":0,"answer":["C"],"clicked":[["answer","clicked"],["A ","false"],["M ","false"],["D ","false"],["N ","false"],["B ","false"],["F ","false"],["H ","false"],["G ","false"],["O ","false"],["C ","false"],["J ","false"],["I ","false"],["E ","false"],["L ","false"],["K ","false"]],"correct":1,"scaffold":"none","question":"starts+finishes","scenario":"longmire","graph":"triangular","condition":0,"session":"expert","experiment":"experiment","subject":"Y07OR","internal_node_id":"0.0-9.0-9.0","time_elapsed":881223,"trial_index":32,"trial_type":"html","url":"../views/src/external/stimulus.html","rt":11149},{"block":"triangular_testing","helps":0,"answer":["4","5"],"clicked":[["answer","clicked"],["A ","false"],["M ","false"],["D ","false"],["N ","false"],["B ","false"],["F ","false"],["H ","false"],["G ","false"],["O ","false"],["C ","false"],["J ","false"],["I ","false"],["E ","false"],["L ","false"],["K ","false"]],"correct":1,"scaffold":"none","question":"finishes","scenario":"longmire","graph":"triangular","condition":0,"session":"expert","experiment":"experiment","subject":"Y07OR","internal_node_id":"0.0-9.0-6.0","time_elapsed":904920,"trial_index":33,"trial_type":"html","url":"../views/src/external/stimulus.html","rt":22409},{"block":"triangular_testing","helps":0,"answer":["6","8"],"clicked":[["answer","clicked"],["A ","false"],["M ","false"],["D ","false"],["N ","false"],["B ","false"],["F ","false"],["H ","false"],["G ","false"],["O ","false"],["C ","false"],["J ","false"],["I ","false"],["E ","false"],["L ","false"],["K ","false"]],"correct":1,"scaffold":"none","question":"starts","scenario":"longmire","graph":"triangular","condition":0,"session":"expert","experiment":"experiment","subject":"Y07OR","internal_node_id":"0.0-9.0-5.0","time_elapsed":924475,"trial_index":34,"trial_type":"html","url":"../views/src/external/stimulus.html","rt":18258},{"block":"triangular_testing","helps":0,"answer":["A","B","D"],"clicked":[["answer","clicked"],["A ","false"],["M ","false"],["D ","false"],["N ","false"],["B ","false"],["F ","false"],["H ","false"],["G ","false"],["O ","false"],["C ","false"],["J ","false"],["I ","false"],["E ","false"],["L ","false"],["K ","false"]],"correct":0,"scaffold":"none","question":"start+duration","scenario":"longmire","graph":"triangular","condition":0,"session":"expert","experiment":"experiment","subject":"Y07OR","internal_node_id":"0.0-9.0-0.0","time_elapsed":954723,"trial_index":35,"trial_type":"html","url":"../views/src/external/stimulus.html","rt":28952},{"condition":0,"session":"expert","experiment":"experiment","subject":"Y07OR","internal_node_id":"0.0-10.0","time_elapsed":1018585,"trial_index":36,"trial_type":"single-stim","block":"scenario-draw","key_press":32,"stimulus":"img/jones.png","rt":62854},{"condition":0,"session":"expert","experiment":"experiment","subject":"Y07OR","internal_node_id":"0.0-11.0","time_elapsed":1545706,"trial_index":37,"trial_type":"html","block":"instructions_drawing","url":"../views/src/external/instructions_draw.html","rt":525944},{"block":"drawingTest","clicked":[["answer","clicked"]],"answer":["C1"],"correct":1,"scaffold":"none","question":"duration","scenario":"jones","graph":"none","condition":0,"session":"expert","experiment":"experiment","subject":"Y07OR","internal_node_id":"0.0-12.0","time_elapsed":1558659,"trial_index":38,"trial_type":"html","url":"../views/src/external/stimulus.html","rt":11575},{"block":"drawingTest","clicked":[["answer","clicked"]],"answer":["Chris","3-4pm"],"correct":1,"scaffold":"none","question":"overlap","scenario":"jones","graph":"none","condition":0,"session":"expert","experiment":"experiment","subject":"Y07OR","internal_node_id":"0.0-13.0","time_elapsed":1629286,"trial_index":39,"trial_type":"html","url":"../views/src/external/stimulus.html","rt":69335},{"condition":0,"session":"expert","experiment":"experiment","subject":"Y07OR","internal_node_id":"0.0-14.0","time_elapsed":1637036,"trial_index":40,"trial_type":"survey-text","block":"demo-1","responses":"{\"Q0\":\"20\",\"Q1\":\"USA\"}","rt":6742},{"condition":0,"session":"expert","experiment":"experiment","subject":"Y07OR","internal_node_id":"0.0-15.0","time_elapsed":1699885,"trial_index":41,"trial_type":"survey-multi-choice","block":"demo-2","responses":"{\"Q0\":\"Mandarin or Cantonese\",\"Q1\":\"Second\",\"Q2\":\"Social Sciences (incl. CogSci)\",\"Q3\":\"Female\",\"Q4\":\"the second one (triangular)\"}","rt":61831},{"condition":0,"session":"expert","experiment":"experiment","subject":"Y07OR","internal_node_id":"0.0-16.0","time_elapsed":1759115,"trial_index":42,"trial_type":"html","block":"debrief","url":"../views/src/external/debrief.html","rt":58037}],"__v":0}
{"_id":{"$oid":"58f7bfb84e5af600040f371d"},"data":[{"condition":0,"session":"expert","experiment":"experiment","subject":"8XZ5Z","internal_node_id":"0.0-0.0","time_elapsed":19038,"trial_index":0,"trial_type":"single-stim","block":"phone","key_press":13,"stimulus":"img/phone.png","rt":19031},{"condition":0,"session":"expert","experiment":"experiment","subject":"8XZ5Z","internal_node_id":"0.0-1.0","time_elapsed":33895,"trial_index":1,"trial_type":"html","block":"consent","url":"../views/src/external/consent.html","rt":13764},{"condition":0,"session":"expert","experiment":"experiment","subject":"8XZ5Z","internal_node_id":"0.0-2.0","time_elapsed":45407,"trial_index":2,"trial_type":"survey-text","block":"codes","responses":"{\"Q0\":\"expert\",\"Q1\":\"0\"}","rt":10503},{"condition":0,"session":"expert","experiment":"experiment","subject":"8XZ5Z","internal_node_id":"0.0-3.0","time_elapsed":57476,"trial_index":3,"trial_type":"html","block":"instructions_lab","url":"../views/src/external/instructions_lab.html","rt":10974},{"condition":0,"session":"expert","experiment":"experiment","subject":"8XZ5Z","internal_node_id":"0.0-4.0","time_elapsed":70234,"trial_index":4,"trial_type":"single-stim","block":"scenario-one","key_press":32,"stimulus":"img/axis.png","rt":11753},{"block":"linear_scaffolded","helps":0,"clicked":[["answer","clicked"],["M ","false"],["B ","false"],["J ","false"],["N ","false"],["D ","false"],["O ","false"],["K ","false"],["C ","false"],["F ","false"],["I ","false"],["H ","false"],["G ","false"],["L ","false"],["E ","false"],["A ","false"]],"answer":["H","O"],"correct":1,"scaffold":"none","question":"start","scenario":"axis","graph":"linear","condition":0,"session":"expert","experiment":"experiment","subject":"8XZ5Z","internal_node_id":"0.0-5.0-0.0","time_elapsed":96390,"trial_index":5,"trial_type":"html","url":"../views/src/external/stimulus.html","rt":24777},{"block":"linear_scaffolded","helps":0,"clicked":[["answer","clicked"],["M ","false"],["B ","false"],["J ","false"],["N ","false"],["D ","false"],["O ","false"],["K ","false"],["C ","false"],["F ","false"],["I ","false"],["H ","false"],["G ","false"],["L ","false"],["E ","false"],["A ","false"]],"answer":["4"],"correct":1,"scaffold":"none","question":"end","scenario":"axis","graph":"linear","condition":0,"session":"expert","experiment":"experiment","subject":"8XZ5Z","internal_node_id":"0.0-5.0-1.0","time_elapsed":111763,"trial_index":6,"trial_type":"html","url":"../views/src/external/stimulus.html","rt":14106},{"block":"linear_scaffolded","helps":0,"clicked":[["answer","clicked"],["M ","false"],["B ","false"],["J ","false"],["N ","false"],["D ","false"],["O ","false"],["K ","false"],["C ","false"],["F ","false"],["I ","false"],["H ","false"],["G ","false"],["L ","false"],["E ","false"],["A ","false"]],"answer":["A","C","E","F","G","H","I","K","L"],"correct":1,"scaffold":"none","question":"duration","scenario":"axis","graph":"linear","condition":0,"session":"expert","experiment":"experiment","subject":"8XZ5Z","internal_node_id":"0.0-5.0-2.0","time_elapsed":186537,"trial_index":7,"trial_type":"html","url":"../views/src/external/stimulus.html","rt":73506},{"block":"linear_scaffolded","helps":0,"clicked":[["answer","clicked"],["M ","false"],["B ","false"],["J ","false"],["N ","false"],["D ","false"],["O ","false"],["K ","false"],["C ","false"],["F ","false"],["I ","false"],["H ","false"],["G ","false"],["L ","false"],["E ","false"],["A ","false"]],"answer":["8"],"correct":1,"scaffold":"none","question":"midpoint","scenario":"axis","graph":"linear","condition":0,"session":"expert","experiment":"experiment","subject":"8XZ5Z","internal_node_id":"0.0-5.0-3.0","time_elapsed":255507,"trial_index":8,"trial_type":"html","url":"../views/src/external/stimulus.html","rt":67620},{"block":"linear_scaffolded","helps":0,"clicked":[["answer","clicked"],["M ","false"],["B ","false"],["J ","false"],["N ","false"],["D ","false"],["O ","false"],["K ","false"],["C ","false"],["F ","false"],["I ","false"],["H ","false"],["G ","false"],["L ","false"],["E ","false"],["A ","false"]],"answer":["7"],"correct":1,"scaffold":"none","question":"start+overlap","scenario":"axis","graph":"linear","condition":0,"session":"expert","experiment":"experiment","subject":"8XZ5Z","internal_node_id":"0.0-5.0-4.0","time_elapsed":284982,"trial_index":9,"trial_type":"html","url":"../views/src/external/stimulus.html","rt":28115},{"block":"linear_testing","helps":0,"clicked":[["answer","clicked"],["M ","false"],["B ","false"],["J ","false"],["N ","false"],["D ","false"],["O ","false"],["K ","false"],["C ","false"],["F ","false"],["I ","false"],["H ","false"],["G ","false"],["L ","false"],["E ","false"],["A ","false"]],"answer":["G","O"],"correct":1,"scaffold":"none","question":"finishes","scenario":"axis","graph":"linear","condition":0,"session":"expert","experiment":"experiment","subject":"8XZ5Z","internal_node_id":"0.0-6.0-6.0","time_elapsed":307646,"trial_index":10,"trial_type":"html","url":"../views/src/external/stimulus.html","rt":21378},{"block":"linear_testing","helps":0,"clicked":[["answer","clicked"],["M ","false"],["B ","false"],["J ","false"],["N ","false"],["D ","false"],["O ","false"],["K ","false"],["C ","false"],["F ","false"],["I ","false"],["H ","false"],["G ","false"],["L ","false"],["E ","false"],["A ","false"]],"answer":["6"],"correct":1,"scaffold":"none","question":"starts","scenario":"axis","graph":"linear","condition":0,"session":"expert","experiment":"experiment","subject":"8XZ5Z","internal_node_id":"0.0-6.0-5.0","time_elapsed":377213,"trial_index":11,"trial_type":"html","url":"../views/src/external/stimulus.html","rt":68282},{"block":"linear_testing","helps":0,"clicked":[["answer","clicked"],["M ","false"],["B ","false"],["J ","false"],["N ","false"],["D ","false"],["O ","false"],["K ","false"],["C ","false"],["F ","false"],["I ","false"],["H ","false"],["G ","false"],["L ","false"],["E ","false"],["A ","false"]],"answer":["9"],"correct":1,"scaffold":"none","question":"start+duration","scenario":"axis","graph":"linear","condition":0,"session":"expert","experiment":"experiment","subject":"8XZ5Z","internal_node_id":"0.0-6.0-0.0","time_elapsed":399400,"trial_index":12,"trial_type":"html","url":"../views/src/external/stimulus.html","rt":20831},{"block":"linear_testing","helps":0,"clicked":[["answer","clicked"],["M ","false"],["B ","false"],["J ","false"],["N ","false"],["D ","false"],["O ","false"],["K ","false"],["C ","false"],["F ","false"],["I ","false"],["H ","false"],["G ","false"],["L ","false"],["E ","false"],["A ","false"]],"answer":["A"],"correct":1,"scaffold":"none","question":"during+overlap","scenario":"axis","graph":"linear","condition":0,"session":"expert","experiment":"experiment","subject":"8XZ5Z","internal_node_id":"0.0-6.0-3.0","time_elapsed":463064,"trial_index":13,"trial_type":"html","url":"../views/src/external/stimulus.html","rt":62384},{"block":"linear_testing","helps":0,"clicked":[["answer","clicked"],["M ","false"],["B ","false"],["J ","false"],["N ","false"],["D ","false"],["O ","false"],["K ","false"],["C ","false"],["F ","false"],["I ","false"],["H ","false"],["G ","false"],["L ","false"],["E ","false"],["A ","false"]],"answer":["G"],"correct":1,"scaffold":"none","question":"starts+finishes","scenario":"axis","graph":"linear","condition":0,"session":"expert","experiment":"experiment","subject":"8XZ5Z","internal_node_id":"0.0-6.0-9.0","time_elapsed":484558,"trial_index":14,"trial_type":"html","url":"../views/src/external/stimulus.html","rt":20141},{"block":"linear_testing","helps":0,"clicked":[["answer","clicked"],["M ","false"],["B ","false"],["J ","false"],["N ","false"],["D ","false"],["O ","false"],["K ","false"],["C ","false"],["F ","false"],["I ","false"],["H ","false"],["G ","false"],["L ","false"],["E ","false"],["A ","false"]],"answer":["G"],"correct":1,"scaffold":"none","question":"meets","scenario":"axis","graph":"linear","condition":0,"session":"expert","experiment":"experiment","subject":"8XZ5Z","internal_node_id":"0.0-6.0-8.0","time_elapsed":583511,"trial_index":15,"trial_type":"html","url":"../views/src/external/stimulus.html","rt":97657},{"block":"linear_testing","helps":0,"clicked":[["answer","clicked"],["M ","false"],["B ","false"],["J ","false"],["N ","false"],["D ","false"],["O ","false"],["K ","false"],["C ","false"],["F ","false"],["I ","false"],["H ","false"],["G ","false"],["L ","false"],["E ","false"],["A ","false"]],"answer":["F","M","O"],"correct":1,"scaffold":"none","question":"during","scenario":"axis","graph":"linear","condition":0,"session":"expert","experiment":"experiment","subject":"8XZ5Z","internal_node_id":"0.0-6.0-7.0","time_elapsed":640196,"trial_index":16,"trial_type":"html","url":"../views/src/external/stimulus.html","rt":55307},{"block":"linear_testing","helps":0,"clicked":[["answer","clicked"],["M ","false"],["B ","false"],["J ","false"],["N ","false"],["D ","false"],["O ","false"],["K ","false"],["C ","false"],["F ","false"],["I ","false"],["H ","false"],["G ","false"],["L ","false"],["E ","false"],["A ","false"]],"answer":["F","G","M","O"],"correct":1,"scaffold":"none","question":"before+overlap","scenario":"axis","graph":"linear","condition":0,"session":"expert","experiment":"experiment","subject":"8XZ5Z","internal_node_id":"0.0-6.0-1.0","time_elapsed":717682,"trial_index":17,"trial_type":"html","url":"../views/src/external/stimulus.html","rt":76208},{"block":"linear_testing","helps":0,"clicked":[["answer","clicked"],["M ","false"],["B ","false"],["J ","false"],["N ","false"],["D ","false"],["O ","false"],["K ","false"],["C ","false"],["F ","false"],["I ","false"],["H ","false"],["G ","false"],["L ","false"],["E ","false"],["A ","false"]],"answer":["D","M","N","O"],"correct":1,"scaffold":"none","question":"contain+duration","scenario":"axis","graph":"linear","condition":0,"session":"expert","experiment":"experiment","subject":"8XZ5Z","internal_node_id":"0.0-6.0-4.0","time_elapsed":790027,"trial_index":18,"trial_type":"html","url":"../views/src/external/stimulus.html","rt":70935},{"block":"linear_testing","helps":0,"clicked":[["answer","clicked"],["M ","false"],["B ","false"],["J ","false"],["N ","false"],["D ","false"],["O ","false"],["K ","false"],["C ","false"],["F ","false"],["I ","false"],["H ","false"],["G ","false"],["L ","false"],["E ","false"],["A ","false"]],"answer":["A","B","C","E","J"],"correct":1,"scaffold":"none","question":"overlap+overlap","scenario":"axis","graph":"linear","condition":0,"session":"expert","experiment":"experiment","subject":"8XZ5Z","internal_node_id":"0.0-6.0-2.0","time_elapsed":844436,"trial_index":19,"trial_type":"html","url":"../views/src/external/stimulus.html","rt":53045},{"condition":0,"session":"expert","experiment":"experiment","subject":"8XZ5Z","internal_node_id":"0.0-7.0","time_elapsed":851439,"trial_index":20,"trial_type":"single-stim","block":"scenario-two","key_press":32,"stimulus":"img/longmire.png","rt":5997},{"block":"triangular_scaffolded","helps":0,"clicked":[["answer","clicked"],["A ","false"],["M ","false"],["D ","false"],["N ","false"],["B ","false"],["F ","false"],["H ","false"],["G ","false"],["O ","false"],["C ","false"],["J ","false"],["I ","false"],["E ","false"],["L ","false"],["K ","false"]],"answer":["C","D","L"],"correct":1,"scaffold":"none","question":"start","scenario":"longmire","graph":"triangular","condition":0,"session":"expert","experiment":"experiment","subject":"8XZ5Z","internal_node_id":"0.0-8.0-0.0","time_elapsed":877123,"trial_index":21,"trial_type":"html","url":"../views/src/external/stimulus.html","rt":24401},{"block":"triangular_scaffolded","helps":0,"clicked":[["answer","clicked"],["A ","false"],["M ","false"],["D ","false"],["N ","false"],["B ","false"],["F ","false"],["H ","false"],["G ","false"],["O ","false"],["C ","false"],["J ","false"],["I ","false"],["E ","false"],["L ","false"],["K ","false"]],"answer":["H","J","K","L","M","N","O"],"correct":1,"scaffold":"none","question":"end","scenario":"longmire","graph":"triangular","condition":0,"session":"expert","experiment":"experiment","subject":"8XZ5Z","internal_node_id":"0.0-8.0-1.0","time_elapsed":930679,"trial_index":22,"trial_type":"html","url":"../views/src/external/stimulus.html","rt":52265},{"block":"triangular_scaffolded","helps":0,"clicked":[["answer","clicked"],["A ","false"],["M ","false"],["D ","false"],["N ","false"],["B ","false"],["F ","false"],["H ","false"],["G ","false"],["O ","false"],["C ","false"],["J ","false"],["I ","false"],["E ","false"],["L ","false"],["K ","false"]],"answer":["G","O"],"correct":1,"scaffold":"none","question":"duration","scenario":"longmire","graph":"triangular","condition":0,"session":"expert","experiment":"experiment","subject":"8XZ5Z","internal_node_id":"0.0-8.0-2.0","time_elapsed":945489,"trial_index":23,"trial_type":"html","url":"../views/src/external/stimulus.html","rt":13524},{"block":"triangular_scaffolded","helps":0,"clicked":[["answer","clicked"],["A ","false"],["M ","false"],["D ","false"],["N ","false"],["B ","false"],["F ","false"],["H ","false"],["G ","false"],["O ","false"],["C ","false"],["J ","false"],["I ","false"],["E ","false"],["L ","false"],["K ","false"]],"answer":["1"],"correct":1,"scaffold":"none","question":"midpoint","scenario":"longmire","graph":"triangular","condition":0,"session":"expert","experiment":"experiment","subject":"8XZ5Z","internal_node_id":"0.0-8.0-3.0","time_elapsed":972873,"trial_index":24,"trial_type":"html","url":"../views/src/external/stimulus.html","rt":26065},{"block":"triangular_scaffolded","helps":0,"clicked":[["answer","clicked"],["A ","false"],["M ","false"],["D ","false"],["N ","false"],["B ","false"],["F ","false"],["H ","false"],["G ","false"],["O ","false"],["C ","false"],["J ","false"],["I ","false"],["E ","false"],["L ","false"],["K ","false"]],"answer":["A"],"correct":1,"scaffold":"none","question":"start+overlap","scenario":"longmire","graph":"triangular","condition":0,"session":"expert","experiment":"experiment","subject":"8XZ5Z","internal_node_id":"0.0-8.0-4.0","time_elapsed":1010775,"trial_index":25,"trial_type":"html","url":"../views/src/external/stimulus.html","rt":36604},{"block":"triangular_testing","helps":0,"answer":["B","C","D","F","G"],"clicked":[["answer","clicked"],["A ","false"],["M ","false"],["D ","false"],["N ","false"],["B ","false"],["F ","false"],["H ","false"],["G ","false"],["O ","false"],["C ","false"],["J ","false"],["I ","false"],["E ","false"],["L ","false"],["K ","false"]],"correct":1,"scaffold":"none","question":"during","scenario":"longmire","graph":"triangular","condition":0,"session":"expert","experiment":"experiment","subject":"8XZ5Z","internal_node_id":"0.0-9.0-7.0","time_elapsed":1127085,"trial_index":26,"trial_type":"html","url":"../views/src/external/stimulus.html","rt":115023},{"block":"triangular_testing","helps":0,"answer":["A","M","N"],"clicked":[["answer","clicked"],["A ","false"],["M ","false"],["D ","false"],["N ","false"],["B ","false"],["F ","false"],["H ","false"],["G ","false"],["O ","false"],["C ","false"],["J ","false"],["I ","false"],["E ","false"],["L ","false"],["K ","false"]],"correct":1,"scaffold":"none","question":"overlap+overlap","scenario":"longmire","graph":"triangular","condition":0,"session":"expert","experiment":"experiment","subject":"8XZ5Z","internal_node_id":"0.0-9.0-2.0","time_elapsed":1197345,"trial_index":27,"trial_type":"html","url":"../views/src/external/stimulus.html","rt":68894},{"block":"triangular_testing","helps":0,"answer":["K","L"],"clicked":[["answer","clicked"],["A ","false"],["M ","false"],["D ","false"],["N ","false"],["B ","false"],["F ","false"],["H ","false"],["G ","false"],["O ","false"],["C ","false"],["J ","false"],["I ","false"],["E ","false"],["L ","false"],["K ","false"]],"correct":1,"scaffold":"none","question":"during+overlap","scenario":"longmire","graph":"triangular","condition":0,"session":"expert","experiment":"experiment","subject":"8XZ5Z","internal_node_id":"0.0-9.0-3.0","time_elapsed":1270055,"trial_index":28,"trial_type":"html","url":"../views/src/external/stimulus.html","rt":71348},{"block":"triangular_testing","helps":0,"answer":["C"],"clicked":[["answer","clicked"],["A ","false"],["M ","false"],["D ","false"],["N ","false"],["B ","false"],["F ","false"],["H ","false"],["G ","false"],["O ","false"],["C ","false"],["J ","false"],["I ","false"],["E ","false"],["L ","false"],["K ","false"]],"correct":1,"scaffold":"none","question":"starts+finishes","scenario":"longmire","graph":"triangular","condition":0,"session":"expert","experiment":"experiment","subject":"8XZ5Z","internal_node_id":"0.0-9.0-9.0","time_elapsed":1289976,"trial_index":29,"trial_type":"html","url":"../views/src/external/stimulus.html","rt":18553},{"block":"triangular_testing","helps":0,"answer":["6","8"],"clicked":[["answer","clicked"],["A ","false"],["M ","false"],["D ","false"],["N ","false"],["B ","false"],["F ","false"],["H ","false"],["G ","false"],["O ","false"],["C ","false"],["J ","false"],["I ","false"],["E ","false"],["L ","false"],["K ","false"]],"correct":1,"scaffold":"none","question":"starts","scenario":"longmire","graph":"triangular","condition":0,"session":"expert","experiment":"experiment","subject":"8XZ5Z","internal_node_id":"0.0-9.0-5.0","time_elapsed":1344584,"trial_index":30,"trial_type":"html","url":"../views/src/external/stimulus.html","rt":53015},{"block":"triangular_testing","helps":0,"answer":["O"],"clicked":[["answer","clicked"],["A ","false"],["M ","false"],["D ","false"],["N ","false"],["B ","false"],["F ","false"],["H ","false"],["G ","false"],["O ","false"],["C ","false"],["J ","false"],["I ","false"],["E ","false"],["L ","false"],["K ","false"]],"correct":1,"scaffold":"none","question":"meets","scenario":"longmire","graph":"triangular","condition":0,"session":"expert","experiment":"experiment","subject":"8XZ5Z","internal_node_id":"0.0-9.0-8.0","time_elapsed":1369437,"trial_index":31,"trial_type":"html","url":"../views/src/external/stimulus.html","rt":23512},{"block":"triangular_testing","helps":0,"answer":["A","B","D","F"],"clicked":[["answer","clicked"],["A ","false"],["M ","false"],["D ","false"],["N ","false"],["B ","false"],["F ","false"],["H ","false"],["G ","false"],["O ","false"],["C ","false"],["J ","false"],["I ","false"],["E ","false"],["L ","false"],["K ","false"]],"correct":1,"scaffold":"none","question":"start+duration","scenario":"longmire","graph":"triangular","condition":0,"session":"expert","experiment":"experiment","subject":"8XZ5Z","internal_node_id":"0.0-9.0-0.0","time_elapsed":1426937,"trial_index":32,"trial_type":"html","url":"../views/src/external/stimulus.html","rt":56212},{"block":"triangular_testing","helps":0,"answer":["G","O"],"clicked":[["answer","clicked"],["A ","false"],["M ","false"],["D ","false"],["N ","false"],["B ","false"],["F ","false"],["H ","false"],["G ","false"],["O ","false"],["C ","false"],["J ","false"],["I ","false"],["E ","false"],["L ","false"],["K ","false"]],"correct":1,"scaffold":"none","question":"contain+duration","scenario":"longmire","graph":"triangular","condition":0,"session":"expert","experiment":"experiment","subject":"8XZ5Z","internal_node_id":"0.0-9.0-4.0","time_elapsed":1448871,"trial_index":33,"trial_type":"html","url":"../views/src/external/stimulus.html","rt":20646},{"block":"triangular_testing","helps":0,"answer":["4","5"],"clicked":[["answer","clicked"],["A ","false"],["M ","false"],["D ","false"],["N ","false"],["B ","false"],["F ","false"],["H ","false"],["G ","false"],["O ","false"],["C ","false"],["J ","false"],["I ","false"],["E ","false"],["L ","false"],["K ","false"]],"correct":1,"scaffold":"none","question":"finishes","scenario":"longmire","graph":"triangular","condition":0,"session":"expert","experiment":"experiment","subject":"8XZ5Z","internal_node_id":"0.0-9.0-6.0","time_elapsed":1481646,"trial_index":34,"trial_type":"html","url":"../views/src/external/stimulus.html","rt":31484},{"block":"triangular_testing","helps":0,"answer":["A","B","C","D","F","I"],"clicked":[["answer","clicked"],["A ","false"],["M ","false"],["D ","false"],["N ","false"],["B ","false"],["F ","false"],["H ","false"],["G ","false"],["O ","false"],["C ","false"],["J ","false"],["I ","false"],["E ","false"],["L ","false"],["K ","false"]],"correct":1,"scaffold":"none","question":"before+overlap","scenario":"longmire","graph":"triangular","condition":0,"session":"expert","experiment":"experiment","subject":"8XZ5Z","internal_node_id":"0.0-9.0-1.0","time_elapsed":1603364,"trial_index":35,"trial_type":"html","url":"../views/src/external/stimulus.html","rt":120431},{"condition":0,"session":"expert","experiment":"experiment","subject":"8XZ5Z","internal_node_id":"0.0-10.0","time_elapsed":1606633,"trial_index":36,"trial_type":"single-stim","block":"scenario-draw","key_press":32,"stimulus":"img/jones.png","rt":2267},{"condition":0,"session":"expert","experiment":"experiment","subject":"8XZ5Z","internal_node_id":"0.0-11.0","time_elapsed":2114572,"trial_index":37,"trial_type":"html","block":"instructions_drawing","url":"../views/src/external/instructions_draw.html","rt":506847},{"block":"drawingTest","clicked":[["answer","clicked"]],"answer":["C1"],"correct":1,"scaffold":"none","question":"duration","scenario":"jones","graph":"none","condition":0,"session":"expert","experiment":"experiment","subject":"8XZ5Z","internal_node_id":"0.0-12.0","time_elapsed":2187926,"trial_index":38,"trial_type":"html","url":"../views/src/external/stimulus.html","rt":72009},{"block":"drawingTest","clicked":[["answer","clicked"]],"answer":["Chris","3-4pm"],"correct":1,"scaffold":"none","question":"overlap","scenario":"jones","graph":"none","condition":0,"session":"expert","experiment":"experiment","subject":"8XZ5Z","internal_node_id":"0.0-13.0","time_elapsed":2241310,"trial_index":39,"trial_type":"html","url":"../views/src/external/stimulus.html","rt":52020},{"condition":0,"session":"expert","experiment":"experiment","subject":"8XZ5Z","internal_node_id":"0.0-14.0","time_elapsed":2252421,"trial_index":40,"trial_type":"survey-text","block":"demo-1","responses":"{\"Q0\":\"22\",\"Q1\":\"Taiwan\"}","rt":10105},{"condition":0,"session":"expert","experiment":"experiment","subject":"8XZ5Z","internal_node_id":"0.0-15.0","time_elapsed":2298590,"trial_index":41,"trial_type":"survey-multi-choice","block":"demo-2","responses":"{\"Q0\":\"Mandarin or Cantonese\",\"Q1\":\"Fourth\",\"Q2\":\"Social Sciences (incl. CogSci)\",\"Q3\":\"Female\",\"Q4\":\"the second one (triangular)\"}","rt":45152},{"condition":0,"session":"expert","experiment":"experiment","subject":"8XZ5Z","internal_node_id":"0.0-16.0","time_elapsed":2302199,"trial_index":42,"trial_type":"html","block":"debrief","url":"../views/src/external/debrief.html","rt":2444}],"__v":0}
{"_id":{"$oid":"58f7bfe24e5af600040f371e"},"data":[{"condition":0,"session":"expert","experiment":"experiment","subject":"KUPVH","internal_node_id":"0.0-0.0","time_elapsed":25815,"trial_index":0,"trial_type":"single-stim","block":"phone","key_press":13,"stimulus":"img/phone.png","rt":25805},{"condition":0,"session":"expert","experiment":"experiment","subject":"KUPVH","internal_node_id":"0.0-1.0","time_elapsed":253330,"trial_index":1,"trial_type":"html","block":"consent","url":"../views/src/external/consent.html","rt":226410},{"condition":0,"session":"expert","experiment":"experiment","subject":"KUPVH","internal_node_id":"0.0-2.0","time_elapsed":277834,"trial_index":2,"trial_type":"survey-text","block":"codes","responses":"{\"Q0\":\"expert\",\"Q1\":\"0\"}","rt":23492},{"condition":0,"session":"expert","experiment":"experiment","subject":"KUPVH","internal_node_id":"0.0-3.0","time_elapsed":367949,"trial_index":3,"trial_type":"html","block":"instructions_lab","url":"../views/src/external/instructions_lab.html","rt":88573},{"condition":0,"session":"expert","experiment":"experiment","subject":"KUPVH","internal_node_id":"0.0-4.0","time_elapsed":387099,"trial_index":4,"trial_type":"single-stim","block":"scenario-one","key_press":13,"stimulus":"img/axis.png","rt":18145},{"block":"linear_scaffolded","helps":0,"clicked":[["answer","clicked"],["M ","false"],["B ","false"],["J ","false"],["N ","false"],["D ","false"],["O ","false"],["K ","false"],["C ","false"],["F ","false"],["I ","false"],["H ","false"],["G ","false"],["L ","false"],["E ","false"],["A ","false"]],"answer":["C","H"],"correct":0,"scaffold":"none","question":"start","scenario":"axis","graph":"linear","condition":0,"session":"expert","experiment":"experiment","subject":"KUPVH","internal_node_id":"0.0-5.0-0.0","time_elapsed":403902,"trial_index":5,"trial_type":"html","url":"../views/src/external/stimulus.html","rt":15449},{"block":"linear_scaffolded","helps":0,"clicked":[["answer","clicked"],["M ","false"],["B ","false"],["J ","false"],["N ","false"],["D ","false"],["O ","false"],["K ","false"],["C ","false"],["F ","false"],["I ","false"],["H ","false"],["G ","false"],["L ","false"],["E ","false"],["A ","false"]],"answer":["4"],"correct":1,"scaffold":"none","question":"end","scenario":"axis","graph":"linear","condition":0,"session":"expert","experiment":"experiment","subject":"KUPVH","internal_node_id":"0.0-5.0-1.0","time_elapsed":414591,"trial_index":6,"trial_type":"html","url":"../views/src/external/stimulus.html","rt":9393},{"block":"linear_scaffolded","helps":0,"clicked":[["answer","clicked"],["M ","false"],["B ","false"],["J ","false"],["N ","false"],["D ","false"],["O ","false"],["K ","false"],["C ","false"],["F ","false"],["I ","false"],["H ","false"],["G ","false"],["L ","false"],["E ","false"],["A ","false"]],"answer":["A","C","E","F","G","H","I","K","L"],"correct":1,"scaffold":"none","question":"duration","scenario":"axis","graph":"linear","condition":0,"session":"expert","experiment":"experiment","subject":"KUPVH","internal_node_id":"0.0-5.0-2.0","time_elapsed":500176,"trial_index":7,"trial_type":"html","url":"../views/src/external/stimulus.html","rt":84299},{"block":"linear_scaffolded","helps":0,"clicked":[["answer","clicked"],["M ","false"],["B ","false"],["J ","false"],["N ","false"],["D ","false"],["O ","false"],["K ","false"],["C ","false"],["F ","false"],["I ","false"],["H ","false"],["G ","false"],["L ","false"],["E ","false"],["A ","false"]],"answer":["8"],"correct":1,"scaffold":"none","question":"midpoint","scenario":"axis","graph":"linear","condition":0,"session":"expert","experiment":"experiment","subject":"KUPVH","internal_node_id":"0.0-5.0-3.0","time_elapsed":567718,"trial_index":8,"trial_type":"html","url":"../views/src/external/stimulus.html","rt":66167},{"block":"linear_scaffolded","helps":0,"clicked":[["answer","clicked"],["M ","false"],["B ","false"],["J ","false"],["N ","false"],["D ","false"],["O ","false"],["K ","false"],["C ","false"],["F ","false"],["I ","false"],["H ","false"],["G ","false"],["L ","false"],["E ","false"],["A ","false"]],"answer":["7"],"correct":1,"scaffold":"none","question":"start+overlap","scenario":"axis","graph":"linear","condition":0,"session":"expert","experiment":"experiment","subject":"KUPVH","internal_node_id":"0.0-5.0-4.0","time_elapsed":610914,"trial_index":9,"trial_type":"html","url":"../views/src/external/stimulus.html","rt":41808},{"block":"linear_testing","helps":0,"clicked":[["answer","clicked"],["M ","false"],["B ","false"],["J ","false"],["N ","false"],["D ","false"],["O ","false"],["K ","false"],["C ","false"],["F ","false"],["I ","false"],["H ","false"],["G ","false"],["L ","false"],["E ","false"],["A ","false"]],"answer":["G"],"correct":1,"scaffold":"none","question":"starts+finishes","scenario":"axis","graph":"linear","condition":0,"session":"expert","experiment":"experiment","subject":"KUPVH","internal_node_id":"0.0-6.0-9.0","time_elapsed":661936,"trial_index":10,"trial_type":"html","url":"../views/src/external/stimulus.html","rt":49690},{"block":"linear_testing","helps":0,"clicked":[["answer","clicked"],["M ","false"],["B ","false"],["J ","false"],["N ","false"],["D ","false"],["O ","false"],["K ","false"],["C ","false"],["F ","false"],["I ","false"],["H ","false"],["G ","false"],["L ","false"],["E ","false"],["A ","false"]],"answer":["C","D","M","N"],"correct":0,"scaffold":"none","question":"contain+duration","scenario":"axis","graph":"linear","condition":0,"session":"expert","experiment":"experiment","subject":"KUPVH","internal_node_id":"0.0-6.0-4.0","time_elapsed":746766,"trial_index":11,"trial_type":"html","url":"../views/src/external/stimulus.html","rt":83545},{"block":"linear_testing","helps":0,"clicked":[["answer","clicked"],["M ","false"],["B ","false"],["J ","false"],["N ","false"],["D ","false"],["O ","false"],["K ","false"],["C ","false"],["F ","false"],["I ","false"],["H ","false"],["G ","false"],["L ","false"],["E ","false"],["A ","false"]],"answer":["G","O"],"correct":1,"scaffold":"none","question":"finishes","scenario":"axis","graph":"linear","condition":0,"session":"expert","experiment":"experiment","subject":"KUPVH","internal_node_id":"0.0-6.0-6.0","time_elapsed":765360,"trial_index":12,"trial_type":"html","url":"../views/src/external/stimulus.html","rt":17213},{"block":"linear_testing","helps":0,"clicked":[["answer","clicked"],["M ","false"],["B ","false"],["J ","false"],["N ","false"],["D ","false"],["O ","false"],["K ","false"],["C ","false"],["F ","false"],["I ","false"],["H ","false"],["G ","false"],["L ","false"],["E ","false"],["A ","false"]],"answer":["A","B","C","E","J"],"correct":1,"scaffold":"none","question":"overlap+overlap","scenario":"axis","graph":"linear","condition":0,"session":"expert","experiment":"experiment","subject":"KUPVH","internal_node_id":"0.0-6.0-2.0","time_elapsed":830526,"trial_index":13,"trial_type":"html","url":"../views/src/external/stimulus.html","rt":63889},{"block":"linear_testing","helps":0,"clicked":[["answer","clicked"],["M ","false"],["B ","false"],["J ","false"],["N ","false"],["D ","false"],["O ","false"],["K ","false"],["C ","false"],["F ","false"],["I ","false"],["H ","false"],["G ","false"],["L ","false"],["E ","false"],["A ","false"]],"answer":["F","G","O"],"correct":0,"scaffold":"none","question":"meets","scenario":"axis","graph":"linear","condition":0,"session":"expert","experiment":"experiment","subject":"KUPVH","internal_node_id":"0.0-6.0-8.0","time_elapsed":935814,"trial_index":14,"trial_type":"html","url":"../views/src/external/stimulus.html","rt":103920},{"block":"linear_testing","helps":0,"clicked":[["answer","clicked"],["M ","false"],["B ","false"],["J ","false"],["N ","false"],["D ","false"],["O ","false"],["K ","false"],["C ","false"],["F ","false"],["I ","false"],["H ","false"],["G ","false"],["L ","false"],["E ","false"],["A ","false"]],"answer":["9"],"correct":1,"scaffold":"none","question":"start+duration","scenario":"axis","graph":"linear","condition":0,"session":"expert","experiment":"experiment","subject":"KUPVH","internal_node_id":"0.0-6.0-0.0","time_elapsed":972358,"trial_index":15,"trial_type":"html","url":"../views/src/external/stimulus.html","rt":35179},{"block":"linear_testing","helps":0,"clicked":[["answer","clicked"],["M ","false"],["B ","false"],["J ","false"],["N ","false"],["D ","false"],["O ","false"],["K ","false"],["C ","false"],["F ","false"],["I ","false"],["H ","false"],["G ","false"],["L ","false"],["E ","false"],["A ","false"]],"answer":["A"],"correct":1,"scaffold":"none","question":"during+overlap","scenario":"axis","graph":"linear","condition":0,"session":"expert","experiment":"experiment","subject":"KUPVH","internal_node_id":"0.0-6.0-3.0","time_elapsed":1020583,"trial_index":16,"trial_type":"html","url":"../views/src/external/stimulus.html","rt":46941},{"block":"linear_testing","helps":0,"clicked":[["answer","clicked"],["M ","false"],["B ","false"],["J ","false"],["N ","false"],["D ","false"],["O ","false"],["K ","false"],["C ","false"],["F ","false"],["I ","false"],["H ","false"],["G ","false"],["L ","false"],["E ","false"],["A ","false"]],"answer":["6"],"correct":1,"scaffold":"none","question":"starts","scenario":"axis","graph":"linear","condition":0,"session":"expert","experiment":"experiment","subject":"KUPVH","internal_node_id":"0.0-6.0-5.0","time_elapsed":1074440,"trial_index":17,"trial_type":"html","url":"../views/src/external/stimulus.html","rt":52577},{"block":"linear_testing","helps":0,"clicked":[["answer","clicked"],["M ","false"],["B ","false"],["J ","false"],["N ","false"],["D ","false"],["O ","false"],["K ","false"],["C ","false"],["F ","false"],["I ","false"],["H ","false"],["G ","false"],["L ","false"],["E ","false"],["A ","false"]],"answer":["A"],"correct":0,"scaffold":"none","question":"during","scenario":"axis","graph":"linear","condition":0,"session":"expert","experiment":"experiment","subject":"KUPVH","internal_node_id":"0.0-6.0-7.0","time_elapsed":1114265,"trial_index":18,"trial_type":"html","url":"../views/src/external/stimulus.html","rt":38506},{"block":"linear_testing","helps":0,"clicked":[["answer","clicked"],["M ","false"],["B ","false"],["J ","false"],["N ","false"],["D ","false"],["O ","false"],["K ","false"],["C ","false"],["F ","false"],["I ","false"],["H ","false"],["G ","false"],["L ","false"],["E ","false"],["A ","false"]],"answer":["F","G","O"],"correct":0,"scaffold":"none","question":"before+overlap","scenario":"axis","graph":"linear","condition":0,"session":"expert","experiment":"experiment","subject":"KUPVH","internal_node_id":"0.0-6.0-1.0","time_elapsed":1178952,"trial_index":19,"trial_type":"html","url":"../views/src/external/stimulus.html","rt":63412},{"condition":0,"session":"expert","experiment":"experiment","subject":"KUPVH","internal_node_id":"0.0-7.0","time_elapsed":1195851,"trial_index":20,"trial_type":"single-stim","block":"scenario-two","key_press":13,"stimulus":"img/longmire.png","rt":15892},{"block":"triangular_scaffolded","helps":0,"clicked":[["answer","clicked"],["A ","false"],["M ","false"],["D ","false"],["N ","false"],["B ","false"],["F ","false"],["H ","false"],["G ","false"],["O ","false"],["C ","false"],["J ","false"],["I ","false"],["E ","false"],["L ","false"],["K ","false"]],"answer":["C","D","L"],"correct":1,"scaffold":"none","question":"start","scenario":"longmire","graph":"triangular","condition":0,"session":"expert","experiment":"experiment","subject":"KUPVH","internal_node_id":"0.0-8.0-0.0","time_elapsed":1222587,"trial_index":21,"trial_type":"html","url":"../views/src/external/stimulus.html","rt":25452},{"block":"triangular_scaffolded","helps":0,"clicked":[["answer","clicked"],["A ","false"],["M ","false"],["D ","false"],["N ","false"],["B ","false"],["F ","false"],["H ","false"],["G ","false"],["O ","false"],["C ","false"],["J ","false"],["I ","false"],["E ","false"],["L ","false"],["K ","false"]],"answer":["H","J","K","L","M","N","O"],"correct":1,"scaffold":"none","question":"end","scenario":"longmire","graph":"triangular","condition":0,"session":"expert","experiment":"experiment","subject":"KUPVH","internal_node_id":"0.0-8.0-1.0","time_elapsed":1259003,"trial_index":22,"trial_type":"html","url":"../views/src/external/stimulus.html","rt":35138},{"block":"triangular_scaffolded","helps":0,"clicked":[["answer","clicked"],["A ","false"],["M ","false"],["D ","false"],["N ","false"],["B ","false"],["F ","false"],["H ","false"],["G ","false"],["O ","false"],["C ","false"],["J ","false"],["I ","false"],["E ","false"],["L ","false"],["K ","false"]],"answer":["G","O"],"correct":1,"scaffold":"none","question":"duration","scenario":"longmire","graph":"triangular","condition":0,"session":"expert","experiment":"experiment","subject":"KUPVH","internal_node_id":"0.0-8.0-2.0","time_elapsed":1272966,"trial_index":23,"trial_type":"html","url":"../views/src/external/stimulus.html","rt":12675},{"block":"triangular_scaffolded","helps":0,"clicked":[["answer","clicked"],["A ","false"],["M ","false"],["D ","false"],["N ","false"],["B ","false"],["F ","false"],["H ","false"],["G ","false"],["O ","false"],["C ","false"],["J ","false"],["I ","false"],["E ","false"],["L ","false"],["K ","false"]],"answer":["1"],"correct":1,"scaffold":"none","question":"midpoint","scenario":"longmire","graph":"triangular","condition":0,"session":"expert","experiment":"experiment","subject":"KUPVH","internal_node_id":"0.0-8.0-3.0","time_elapsed":1300001,"trial_index":24,"trial_type":"html","url":"../views/src/external/stimulus.html","rt":25746},{"block":"triangular_scaffolded","helps":0,"clicked":[["answer","clicked"],["A ","false"],["M ","false"],["D ","false"],["N ","false"],["B ","false"],["F ","false"],["H ","false"],["G ","false"],["O ","false"],["C ","false"],["J ","false"],["I ","false"],["E ","false"],["L ","false"],["K ","false"]],"answer":["A"],"correct":1,"scaffold":"none","question":"start+overlap","scenario":"longmire","graph":"triangular","condition":0,"session":"expert","experiment":"experiment","subject":"KUPVH","internal_node_id":"0.0-8.0-4.0","time_elapsed":1331983,"trial_index":25,"trial_type":"html","url":"../views/src/external/stimulus.html","rt":30688},{"block":"triangular_testing","helps":0,"answer":["B","F"],"clicked":[["answer","clicked"],["A ","false"],["M ","false"],["D ","false"],["N ","false"],["B ","false"],["F ","false"],["H ","false"],["G ","false"],["O ","false"],["C ","false"],["J ","false"],["I ","false"],["E ","false"],["L ","false"],["K ","false"]],"correct":0,"scaffold":"none","question":"contain+duration","scenario":"longmire","graph":"triangular","condition":0,"session":"expert","experiment":"experiment","subject":"KUPVH","internal_node_id":"0.0-9.0-4.0","time_elapsed":1461583,"trial_index":26,"trial_type":"html","url":"../views/src/external/stimulus.html","rt":128313},{"block":"triangular_testing","helps":0,"answer":["B","C","D","F","G","H","I","J","L","O"],"clicked":[["answer","clicked"],["A ","false"],["M ","false"],["D ","false"],["N ","false"],["B ","false"],["F ","false"],["H ","false"],["G ","false"],["O ","false"],["C ","false"],["J ","false"],["I ","false"],["E ","false"],["L ","false"],["K ","false"]],"correct":0,"scaffold":"none","question":"during","scenario":"longmire","graph":"triangular","condition":0,"session":"expert","experiment":"experiment","subject":"KUPVH","internal_node_id":"0.0-9.0-7.0","time_elapsed":1632175,"trial_index":27,"trial_type":"html","url":"../views/src/external/stimulus.html","rt":169238},{"block":"triangular_testing","helps":0,"answer":["4","5"],"clicked":[["answer","clicked"],["A ","false"],["M ","false"],["D ","false"],["N ","false"],["B ","false"],["F ","false"],["H ","false"],["G ","false"],["O ","false"],["C ","false"],["J ","false"],["I ","false"],["E ","false"],["L ","false"],["K ","false"]],"correct":1,"scaffold":"none","question":"finishes","scenario":"longmire","graph":"triangular","condition":0,"session":"expert","experiment":"experiment","subject":"KUPVH","internal_node_id":"0.0-9.0-6.0","time_elapsed":1674423,"trial_index":28,"trial_type":"html","url":"../views/src/external/stimulus.html","rt":40849},{"block":"triangular_testing","helps":0,"answer":["C"],"clicked":[["answer","clicked"],["A ","false"],["M ","false"],["D ","false"],["N ","false"],["B ","false"],["F ","false"],["H ","false"],["G ","false"],["O ","false"],["C ","false"],["J ","false"],["I ","false"],["E ","false"],["L ","false"],["K ","false"]],"correct":1,"scaffold":"none","question":"starts+finishes","scenario":"longmire","graph":"triangular","condition":0,"session":"expert","experiment":"experiment","subject":"KUPVH","internal_node_id":"0.0-9.0-9.0","time_elapsed":1689536,"trial_index":29,"trial_type":"html","url":"../views/src/external/stimulus.html","rt":13827},{"block":"triangular_testing","helps":0,"answer":["A","M","N"],"clicked":[["answer","clicked"],["A ","false"],["M ","false"],["D ","false"],["N ","false"],["B ","false"],["F ","false"],["H ","false"],["G ","false"],["O ","false"],["C ","false"],["J ","false"],["I ","false"],["E ","false"],["L ","false"],["K ","false"]],"correct":1,"scaffold":"none","question":"overlap+overlap","scenario":"longmire","graph":"triangular","condition":0,"session":"expert","experiment":"experiment","subject":"KUPVH","internal_node_id":"0.0-9.0-2.0","time_elapsed":1758373,"trial_index":30,"trial_type":"html","url":"../views/src/external/stimulus.html","rt":67562},{"block":"triangular_testing","helps":0,"answer":["A","B","D","F"],"clicked":[["answer","clicked"],["A ","false"],["M ","false"],["D ","false"],["N ","false"],["B ","false"],["F ","false"],["H ","false"],["G ","false"],["O ","false"],["C ","false"],["J ","false"],["I ","false"],["E ","false"],["L ","false"],["K ","false"]],"correct":1,"scaffold":"none","question":"start+duration","scenario":"longmire","graph":"triangular","condition":0,"session":"expert","experiment":"experiment","subject":"KUPVH","internal_node_id":"0.0-9.0-0.0","time_elapsed":1798372,"trial_index":31,"trial_type":"html","url":"../views/src/external/stimulus.html","rt":38624},{"block":"triangular_testing","helps":0,"answer":["J","K","L"],"clicked":[["answer","clicked"],["A ","false"],["M ","false"],["D ","false"],["N ","false"],["B ","false"],["F ","false"],["H ","false"],["G ","false"],["O ","false"],["C ","false"],["J ","false"],["I ","false"],["E ","false"],["L ","false"],["K ","false"]],"correct":0,"scaffold":"none","question":"during+overlap","scenario":"longmire","graph":"triangular","condition":0,"session":"expert","experiment":"experiment","subject":"KUPVH","internal_node_id":"0.0-9.0-3.0","time_elapsed":1869781,"trial_index":32,"trial_type":"html","url":"../views/src/external/stimulus.html","rt":70103},{"block":"triangular_testing","helps":0,"answer":["O"],"clicked":[["answer","clicked"],["A ","false"],["M ","false"],["D ","false"],["N ","false"],["B ","false"],["F ","false"],["H ","false"],["G ","false"],["O ","false"],["C ","false"],["J ","false"],["I ","false"],["E ","false"],["L ","false"],["K ","false"]],"correct":1,"scaffold":"none","question":"meets","scenario":"longmire","graph":"triangular","condition":0,"session":"expert","experiment":"experiment","subject":"KUPVH","internal_node_id":"0.0-9.0-8.0","time_elapsed":1895854,"trial_index":33,"trial_type":"html","url":"../views/src/external/stimulus.html","rt":24711},{"block":"triangular_testing","helps":0,"answer":["M"],"clicked":[["answer","clicked"],["A ","false"],["M ","false"],["D ","false"],["N ","false"],["B ","false"],["F ","false"],["H ","false"],["G ","false"],["O ","false"],["C ","false"],["J ","false"],["I ","false"],["E ","false"],["L ","false"],["K ","false"]],"correct":0,"scaffold":"none","question":"before+overlap","scenario":"longmire","graph":"triangular","condition":0,"session":"expert","experiment":"experiment","subject":"KUPVH","internal_node_id":"0.0-9.0-1.0","time_elapsed":1929434,"trial_index":34,"trial_type":"html","url":"../views/src/external/stimulus.html","rt":32276},{"block":"triangular_testing","helps":0,"answer":["6","8"],"clicked":[["answer","clicked"],["A ","false"],["M ","false"],["D ","false"],["N ","false"],["B ","false"],["F ","false"],["H ","false"],["G ","false"],["O ","false"],["C ","false"],["J ","false"],["I ","false"],["E ","false"],["L ","false"],["K ","false"]],"correct":1,"scaffold":"none","question":"starts","scenario":"longmire","graph":"triangular","condition":0,"session":"expert","experiment":"experiment","subject":"KUPVH","internal_node_id":"0.0-9.0-5.0","time_elapsed":1969305,"trial_index":35,"trial_type":"html","url":"../views/src/external/stimulus.html","rt":38578},{"condition":0,"session":"expert","experiment":"experiment","subject":"KUPVH","internal_node_id":"0.0-10.0","time_elapsed":1997866,"trial_index":36,"trial_type":"single-stim","block":"scenario-draw","key_press":13,"stimulus":"img/jones.png","rt":27554},{"condition":0,"session":"expert","experiment":"experiment","subject":"KUPVH","internal_node_id":"0.0-11.0","time_elapsed":2664186,"trial_index":37,"trial_type":"html","block":"instructions_drawing","url":"../views/src/external/instructions_draw.html","rt":665210},{"block":"drawingTest","clicked":[["answer","clicked"]],"answer":["C1"],"correct":1,"scaffold":"none","question":"duration","scenario":"jones","graph":"none","condition":0,"session":"expert","experiment":"experiment","subject":"KUPVH","internal_node_id":"0.0-12.0","time_elapsed":2702862,"trial_index":38,"trial_type":"html","url":"../views/src/external/stimulus.html","rt":37293},{"block":"drawingTest","clicked":[["answer","clicked"]],"answer":["Chris","3-4pm"],"correct":1,"scaffold":"none","question":"overlap","scenario":"jones","graph":"none","condition":0,"session":"expert","experiment":"experiment","subject":"KUPVH","internal_node_id":"0.0-13.0","time_elapsed":2765426,"trial_index":39,"trial_type":"html","url":"../views/src/external/stimulus.html","rt":61285},{"condition":0,"session":"expert","experiment":"experiment","subject":"KUPVH","internal_node_id":"0.0-14.0","time_elapsed":2772399,"trial_index":40,"trial_type":"survey-text","block":"demo-1","responses":"{\"Q0\":\"20\",\"Q1\":\"USA\"}","rt":5966},{"condition":0,"session":"expert","experiment":"experiment","subject":"KUPVH","internal_node_id":"0.0-15.0","time_elapsed":2794170,"trial_index":41,"trial_type":"survey-multi-choice","block":"demo-2","responses":"{\"Q0\":\"English\",\"Q1\":\"Third\",\"Q2\":\"Social Sciences (incl. CogSci)\",\"Q3\":\"Female\",\"Q4\":\"the second one (triangular)\"}","rt":20732},{"condition":0,"session":"expert","experiment":"experiment","subject":"KUPVH","internal_node_id":"0.0-16.0","time_elapsed":2798663,"trial_index":42,"trial_type":"html","block":"debrief","url":"../views/src/external/debrief.html","rt":3322}],"__v":0}
