{"_id":{"$oid":"5a145f8ae991010004710289"},"data":[{"condition":"311","session":"delta","graph":"triangular","experiment":"2YP3","subject":"061RN","internal_node_id":"0.0-0.0","time_elapsed":175579,"trial_index":0,"trial_type":"single-stim","block":"phone","key_press":13,"stimulus":"img/phone.png","rt":175576},{"condition":"311","session":"delta","graph":"triangular","experiment":"2YP3","subject":"061RN","internal_node_id":"0.0-1.0","time_elapsed":203520,"trial_index":1,"trial_type":"html","block":"consent","url":"../views/src/external/consent.html","rt":26601},{"condition":"311","session":"delta","graph":"triangular","experiment":"2YP3","subject":"061RN","internal_node_id":"0.0-2.0","time_elapsed":212697,"trial_index":2,"trial_type":"survey-text","block":"codes","responses":"{\"Q0\":\"delta\",\"Q1\":\"311\"}","rt":8160},{"condition":"311","session":"delta","graph":"triangular","experiment":"2YP3","subject":"061RN","internal_node_id":"0.0-3.0","time_elapsed":232489,"trial_index":3,"trial_type":"html","block":"instructions_lab","url":"../views/src/external/instructions_lab.html","rt":18705},{"condition":"311","session":"delta","graph":"triangular","experiment":"2YP3","subject":"061RN","internal_node_id":"0.0-4.0","time_elapsed":250904,"trial_index":4,"trial_type":"single-stim","block":"scenario","key_press":13,"stimulus":"img/acme.png","rt":17412},{"mouseLog":["{x:1911,y:1911,t:0};","{x:1044,y:988,t:1511284253086};","{x:1052,y:985,t:1511284253100};","{x:1051,y:986,t:1511284254005};","{x:1049,y:987,t:1511284254028};","{x:1048,y:988,t:1511284254036};","{x:1047,y:990,t:1511284254052};","{x:1044,y:991,t:1511284254067};","{x:1041,y:994,t:1511284254084};","{x:1035,y:996,t:1511284254102};","{x:1027,y:997,t:1511284254117};","{x:1023,y:998,t:1511284254134};","{x:1018,y:998,t:1511284254151};","{x:1014,y:999,t:1511284254167};","{x:1012,y:999,t:1511284254188};","{x:1012,y:997,t:1511284254236};","{x:1012,y:996,t:1511284254252};","{x:1013,y:995,t:1511284254268};","{x:1014,y:994,t:1511284254284};","{x:1016,y:992,t:1511284254302};","{x:1020,y:989,t:1511284254318};","{x:1025,y:987,t:1511284254335};","{x:1029,y:985,t:1511284254352};","{x:1034,y:982,t:1511284254368};","{x:1037,y:981,t:1511284254385};","{x:1040,y:979,t:1511284254402};","{x:1041,y:978,t:1511284254418};","{x:1041,y:977,t:1511284254444};","{x:1042,y:976,t:1511284254460};","{x:1042,y:975,t:1511284254492};","{x:1042,y:974,t:1511284254502};","{x:1042,y:972,t:1511284254518};","{x:1041,y:968,t:1511284254535};","{x:1041,y:966,t:1511284254552};","{x:1040,y:964,t:1511284254569};","{x:1040,y:962,t:1511284254585};","{x:1040,y:960,t:1511284254602};","{x:1040,y:958,t:1511284254619};","{x:1040,y:956,t:1511284254635};","{x:1040,y:955,t:1511284254652};","{x:1040,y:953,t:1511284254669};","{x:1040,y:950,t:1511284254685};","{x:1042,y:947,t:1511284254702};","{x:1043,y:945,t:1511284254719};","{x:1043,y:944,t:1511284254735};","{x:1043,y:943,t:1511284254752};","{x:1044,y:941,t:1511284254769};","{x:1044,y:940,t:1511284254785};","{x:1044,y:938,t:1511284254802};","{x:1046,y:935,t:1511284254819};","{x:1046,y:933,t:1511284254835};","{x:1047,y:931,t:1511284254852};","{x:1047,y:928,t:1511284254868};","{x:1047,y:927,t:1511284254885};","{x:1047,y:925,t:1511284254908};","{x:1048,y:924,t:1511284254919};","{x:1048,y:921,t:1511284254935};","{x:1050,y:916,t:1511284254952};","{x:1050,y:911,t:1511284254969};","{x:1051,y:905,t:1511284254986};","{x:1052,y:903,t:1511284255002};","{x:1054,y:897,t:1511284255019};","{x:1056,y:890,t:1511284255036};","{x:1057,y:884,t:1511284255052};","{x:1059,y:879,t:1511284255068};","{x:1059,y:874,t:1511284255086};","{x:1061,y:871,t:1511284255102};","{x:1062,y:868,t:1511284255119};","{x:1063,y:865,t:1511284255137};","{x:1063,y:861,t:1511284255152};","{x:1063,y:860,t:1511284255169};","{x:1063,y:857,t:1511284255186};","{x:1063,y:855,t:1511284255202};","{x:1063,y:854,t:1511284255219};","{x:1063,y:852,t:1511284255988};","{x:1063,y:849,t:1511284256003};","{x:1063,y:839,t:1511284256020};","{x:1063,y:833,t:1511284256036};","{x:1063,y:829,t:1511284256052};","{x:1063,y:824,t:1511284256070};","{x:1063,y:822,t:1511284256086};","{x:1063,y:821,t:1511284256103};","{x:1063,y:819,t:1511284256120};","{x:1063,y:818,t:1511284256140};","{x:1062,y:817,t:1511284256260};","{x:1061,y:817,t:1511284256276};","{x:1060,y:818,t:1511284256292};","{x:1059,y:818,t:1511284256303};","{x:1059,y:819,t:1511284256324};","{x:1059,y:820,t:1511284256484};","{x:1059,y:821,t:1511284256516};","{x:1059,y:822,t:1511284256564};","{x:1059,y:823,t:1511284256580};","{x:1059,y:824,t:1511284256588};","{x:1058,y:825,t:1511284256612};","{x:1058,y:826,t:1511284256628};","{x:1058,y:827,t:1511284256652};","{x:1057,y:827,t:1511284256940};","{x:1056,y:828,t:1511284256954};","{x:1056,y:829,t:1511284256970};","{x:1056,y:830,t:1511284256987};","{x:1055,y:830,t:1511284257004};","{x:1054,y:831,t:1511284258157};","{x:1053,y:831,t:1511284258292};","{x:1052,y:831,t:1511284258404};","{x:1051,y:831,t:1511284258421};","{x:1050,y:831,t:1511284258438};","{x:1049,y:831,t:1511284258460};","{x:1048,y:831,t:1511284258489};","{x:1047,y:831,t:1511284258504};","{x:1046,y:831,t:1511284258563};","{x:1045,y:831,t:1511284258779};","{x:1042,y:830,t:1511284258788};","{x:1036,y:826,t:1511284258807};","{x:1028,y:823,t:1511284258822};","{x:1020,y:822,t:1511284258838};","{x:1013,y:821,t:1511284258855};","{x:1003,y:819,t:1511284258872};","{x:990,y:817,t:1511284258888};","{x:987,y:816,t:1511284258905};","{x:989,y:816,t:1511284259060};","{x:990,y:817,t:1511284259073};","{x:997,y:817,t:1511284259089};","{x:1002,y:820,t:1511284259105};","{x:1005,y:821,t:1511284259122};","{x:1011,y:824,t:1511284259139};","{x:1014,y:828,t:1511284259155};","{x:1016,y:829,t:1511284259172};","{x:1017,y:830,t:1511284259189};","{x:1018,y:831,t:1511284259252};","{x:1019,y:831,t:1511284259276};","{x:1019,y:832,t:1511284259289};","{x:1020,y:832,t:1511284259340};","{x:1021,y:832,t:1511284259356};","{x:1022,y:832,t:1511284259373};","{x:1024,y:832,t:1511284259390};","{x:1027,y:831,t:1511284259406};","{x:1029,y:831,t:1511284259423};","{x:1031,y:830,t:1511284259440};","{x:1034,y:830,t:1511284259456};","{x:1036,y:830,t:1511284259472};","{x:1038,y:830,t:1511284259497};","{x:1039,y:830,t:1511284259505};","{x:1040,y:830,t:1511284259522};","{x:1041,y:830,t:1511284259539};","{x:1041,y:833,t:1511284260556};","{x:1041,y:843,t:1511284260578};","{x:1040,y:856,t:1511284260590};","{x:1039,y:868,t:1511284260606};","{x:1039,y:881,t:1511284260623};","{x:1039,y:890,t:1511284260640};","{x:1039,y:898,t:1511284260656};","{x:1039,y:904,t:1511284260673};","{x:1039,y:909,t:1511284260690};","{x:1039,y:914,t:1511284260706};","{x:1039,y:920,t:1511284260723};","{x:1039,y:922,t:1511284260740};","{x:1039,y:924,t:1511284260757};","{x:1039,y:925,t:1511284260773};","{x:1040,y:926,t:1511284260790};","{x:1040,y:927,t:1511284260807};","{x:1040,y:929,t:1511284260823};","{x:1040,y:931,t:1511284260840};","{x:1041,y:936,t:1511284260857};","{x:1043,y:940,t:1511284260873};","{x:1044,y:941,t:1511284260890};","{x:1044,y:943,t:1511284260907};","{x:1044,y:946,t:1511284260924};","{x:1044,y:947,t:1511284260947};","{x:1044,y:948,t:1511284260963};","{x:1044,y:949,t:1511284260973};","{x:1044,y:951,t:1511284260990};","{x:1044,y:952,t:1511284261008};","{x:1044,y:953,t:1511284261024};","{x:1044,y:954,t:1511284261041};","{x:1044,y:956,t:1511284261058};","{x:1044,y:957,t:1511284261074};","{x:1044,y:958,t:1511284261091};","{x:1044,y:960,t:1511284261108};","{x:1044,y:962,t:1511284261124};","{x:1044,y:963,t:1511284261196};","{x:1044,y:964,t:1511284261212};","{x:1044,y:965,t:1511284261225};","{x:1043,y:965,t:1511284261241};","{x:1042,y:966,t:1511284261258};","{x:1042,y:968,t:1511284261275};","{x:1042,y:969,t:1511284261300};","{x:1041,y:969,t:1511284261604};","{x:1041,y:968,t:1511284261612};","{x:1041,y:965,t:1511284261625};","{x:1041,y:960,t:1511284261642};","{x:1041,y:952,t:1511284261658};","{x:1041,y:944,t:1511284261675};","{x:1040,y:932,t:1511284261691};","{x:1040,y:925,t:1511284261708};","{x:1040,y:920,t:1511284261725};","{x:1040,y:915,t:1511284261742};","{x:1040,y:912,t:1511284261758};","{x:1040,y:908,t:1511284261775};","{x:1040,y:903,t:1511284261792};","{x:1040,y:897,t:1511284261807};","{x:1040,y:893,t:1511284261825};","{x:1040,y:888,t:1511284261841};","{x:1040,y:887,t:1511284261858};","{x:1040,y:884,t:1511284261875};","{x:1040,y:881,t:1511284261891};","{x:1041,y:878,t:1511284261908};","{x:1041,y:875,t:1511284261924};","{x:1041,y:872,t:1511284261941};","{x:1041,y:870,t:1511284261958};","{x:1042,y:866,t:1511284261975};","{x:1043,y:863,t:1511284261991};","{x:1043,y:861,t:1511284262008};","{x:1043,y:860,t:1511284262024};","{x:1044,y:857,t:1511284262042};","{x:1044,y:854,t:1511284262059};","{x:1044,y:852,t:1511284262075};","{x:1045,y:849,t:1511284262091};","{x:1045,y:847,t:1511284262109};","{x:1045,y:846,t:1511284262124};","{x:1045,y:844,t:1511284262141};","{x:1045,y:843,t:1511284262164};","{x:1045,y:842,t:1511284262188};","{x:1045,y:841,t:1511284262204};","{x:1045,y:840,t:1511284262228};","{x:1045,y:839,t:1511284262242};","{x:1045,y:838,t:1511284262259};","{x:1045,y:837,t:1511284262275};","{x:1045,y:836,t:1511284262292};","{x:1045,y:835,t:1511284262379};","{x:1045,y:834,t:1511284262408};","{x:1045,y:833,t:1511284262475};","{x:1045,y:831,t:1511284262515};","{x:1044,y:831,t:1511284262539};","{x:1044,y:830,t:1511284262555};","{x:1043,y:830,t:1511284267100};","{x:1042,y:830,t:1511284267112};","{x:1040,y:830,t:1511284267128};","{x:1039,y:830,t:1511284267155};","{x:1038,y:830,t:1511284268020};","{x:1035,y:830,t:1511284268034};","{x:1010,y:834,t:1511284268062};","{x:987,y:834,t:1511284268079};","{x:959,y:834,t:1511284268095};","{x:920,y:834,t:1511284268112};","{x:862,y:820,t:1511284268129};","{x:801,y:803,t:1511284268145};","{x:743,y:788,t:1511284268162};","{x:662,y:766,t:1511284268179};","{x:609,y:750,t:1511284268195};","{x:573,y:740,t:1511284268212};","{x:546,y:732,t:1511284268229};","{x:533,y:727,t:1511284268245};","{x:524,y:724,t:1511284268262};","{x:517,y:720,t:1511284268279};","{x:508,y:716,t:1511284268296};","{x:499,y:712,t:1511284268312};","{x:494,y:707,t:1511284268329};","{x:486,y:701,t:1511284268347};","{x:484,y:698,t:1511284268362};","{x:475,y:692,t:1511284268379};","{x:466,y:686,t:1511284268396};","{x:459,y:682,t:1511284268412};","{x:451,y:677,t:1511284268429};","{x:446,y:674,t:1511284268446};","{x:443,y:672,t:1511284268462};","{x:439,y:669,t:1511284268479};","{x:433,y:668,t:1511284268496};","{x:429,y:666,t:1511284268513};","{x:422,y:665,t:1511284268529};","{x:418,y:662,t:1511284268547};","{x:412,y:660,t:1511284268563};","{x:408,y:657,t:1511284268579};","{x:406,y:655,t:1511284268596};","{x:404,y:653,t:1511284268613};","{x:404,y:652,t:1511284268651};","{x:404,y:651,t:1511284268691};","{x:404,y:650,t:1511284268715};","{x:404,y:649,t:1511284268731};","{x:403,y:648,t:1511284269084};","{x:401,y:648,t:1511284269096};","{x:397,y:648,t:1511284269113};","{x:389,y:648,t:1511284269129};","{x:376,y:645,t:1511284269146};","{x:372,y:644,t:1511284269162};","{x:367,y:643,t:1511284269179};","{x:360,y:641,t:1511284269196};","{x:353,y:639,t:1511284269213};","{x:344,y:638,t:1511284269230};","{x:338,y:637,t:1511284269246};","{x:332,y:636,t:1511284269263};","{x:327,y:636,t:1511284269280};","{x:323,y:635,t:1511284269296};","{x:319,y:635,t:1511284269313};","{x:318,y:634,t:1511284269330};","{x:315,y:634,t:1511284269347};","{x:314,y:634,t:1511284269363};","{x:313,y:633,t:1511284269380};","{x:311,y:633,t:1511284269397};","{x:310,y:633,t:1511284269413};","{x:308,y:632,t:1511284269431};","{x:303,y:632,t:1511284269447};","{x:299,y:630,t:1511284269463};","{x:293,y:629,t:1511284269480};","{x:285,y:628,t:1511284269497};","{x:278,y:628,t:1511284269513};","{x:273,y:626,t:1511284269530};","{x:266,y:626,t:1511284269546};","{x:263,y:626,t:1511284269563};","{x:258,y:627,t:1511284269580};","{x:253,y:629,t:1511284269597};","{x:247,y:630,t:1511284269613};","{x:241,y:633,t:1511284269630};","{x:239,y:633,t:1511284269647};","{x:238,y:634,t:1511284269663};","{x:237,y:634,t:1511284269715};","{x:237,y:635,t:1511284269730};","{x:233,y:636,t:1511284269747};","{x:232,y:636,t:1511284269763};","{x:231,y:636,t:1511284269787};","{x:230,y:636,t:1511284269797};","{x:229,y:636,t:1511284269814};","{x:227,y:636,t:1511284269831};","{x:225,y:636,t:1511284269847};","{x:224,y:636,t:1511284269875};","{x:222,y:636,t:1511284269916};","{x:221,y:636,t:1511284269931};","{x:220,y:636,t:1511284270212};","{x:220,y:635,t:1511284270267};","{x:221,y:635,t:1511284270348};","{x:221,y:635,t:1511284270389};","{x:221,y:634,t:1511284270788};","{x:222,y:633,t:1511284271132};","{x:223,y:633,t:1511284271172};","{x:225,y:632,t:1511284271540};","{x:226,y:632,t:1511284271732};","{x:228,y:630,t:1511284273005};","{x:230,y:630,t:1511284273411};","{x:231,y:630,t:1511284274012};","{x:233,y:631,t:1511284274027};","{x:235,y:631,t:1511284274035};","{x:238,y:633,t:1511284274051};","{x:240,y:634,t:1511284274068};","{x:242,y:635,t:1511284274084};","{x:245,y:637,t:1511284274101};","{x:247,y:638,t:1511284274118};","{x:249,y:639,t:1511284274134};","{x:250,y:640,t:1511284274151};","{x:251,y:640,t:1511284274168};","{x:251,y:641,t:1511284274187};","{x:252,y:641,t:1511284274203};","{x:253,y:643,t:1511284274218};","{x:254,y:644,t:1511284274235};","{x:255,y:646,t:1511284274251};","{x:256,y:647,t:1511284274268};","{x:257,y:650,t:1511284274285};","{x:258,y:652,t:1511284274301};","{x:258,y:653,t:1511284274318};","{x:258,y:655,t:1511284274335};","{x:260,y:656,t:1511284276700};","{x:262,y:656,t:1511284276708};","{x:267,y:658,t:1511284276720};","{x:281,y:666,t:1511284276737};","{x:298,y:674,t:1511284276753};","{x:317,y:687,t:1511284276770};","{x:345,y:705,t:1511284276788};","{x:360,y:716,t:1511284276803};","{x:372,y:726,t:1511284276820};","{x:383,y:732,t:1511284276837};","{x:388,y:736,t:1511284276853};","{x:392,y:738,t:1511284276870};","{x:397,y:740,t:1511284276887};","{x:402,y:740,t:1511284276903};","{x:406,y:742,t:1511284276920};","{x:413,y:744,t:1511284276937};","{x:421,y:744,t:1511284276953};","{x:431,y:744,t:1511284276970};","{x:438,y:744,t:1511284276987};","{x:440,y:744,t:1511284277003};","{x:441,y:744,t:1511284277020};","{x:441,y:743,t:1511284277116};","{x:440,y:743,t:1511284277124};","{x:438,y:741,t:1511284277137};","{x:434,y:739,t:1511284277153};","{x:432,y:738,t:1511284277170};","{x:429,y:735,t:1511284277188};","{x:428,y:734,t:1511284277204};","{x:427,y:733,t:1511284277220};","{x:426,y:732,t:1511284277237};","{x:425,y:730,t:1511284277254};","{x:425,y:729,t:1511284277270};","{x:425,y:728,t:1511284277287};","{x:425,y:727,t:1511284277304};","{x:425,y:726,t:1511284277320};","{x:425,y:725,t:1511284277372};","{x:425,y:724,t:1511284277395};","{x:425,y:723,t:1511284277419};"],"block":"triangular_scaffolded","hovered":"-11 AM-11 AM-A -A -11 AM-A ","clicked":[["answer","clicked"],["X ","false"],["C ","false"],["O ","false"],["I ","false"],["J ","false"],["A ","false"],["H ","false"],["F ","false"],["K ","false"],["D ","false"],["U ","false"],["E ","false"],["G ","false"],["B ","false"],["Z ","false"]],"answer":["A"],"orth_correct":1,"correct":0,"axis":"full","impasse":1,"explicit":3,"q":1,"question":"starttime","scenario":"acme","condition":"311","session":"delta","graph":"triangular","experiment":"2YP3","subject":"061RN","internal_node_id":"0.0-5.0-0.0","time_elapsed":287634,"trial_index":5,"trial_type":"html","url":"../views/src/external/stimulus.html","rt":35429},{"mouseLog":["{x:1911,y:1911,t:0};","{x:426,y:724,t:1511284281412};","{x:427,y:728,t:1511284281426};","{x:431,y:737,t:1511284281442};","{x:439,y:748,t:1511284281457};","{x:447,y:760,t:1511284281473};","{x:458,y:773,t:1511284281490};","{x:474,y:793,t:1511284281507};","{x:483,y:805,t:1511284281524};","{x:489,y:815,t:1511284281540};","{x:498,y:829,t:1511284281557};","{x:508,y:848,t:1511284281574};","{x:515,y:861,t:1511284281590};","{x:518,y:870,t:1511284281607};","{x:523,y:880,t:1511284281624};","{x:527,y:888,t:1511284281640};","{x:528,y:894,t:1511284281657};","{x:531,y:900,t:1511284281674};","{x:531,y:903,t:1511284281690};","{x:531,y:906,t:1511284281707};","{x:531,y:908,t:1511284281724};","{x:531,y:909,t:1511284281740};","{x:531,y:911,t:1511284281757};","{x:532,y:913,t:1511284281774};","{x:533,y:915,t:1511284281790};","{x:533,y:916,t:1511284281808};","{x:533,y:917,t:1511284281900};","{x:533,y:918,t:1511284281908};","{x:534,y:918,t:1511284281939};","{x:535,y:918,t:1511284281980};","{x:537,y:918,t:1511284281995};","{x:538,y:918,t:1511284282028};","{x:540,y:918,t:1511284282132};","{x:541,y:918,t:1511284282340};","{x:543,y:918,t:1511284282355};","{x:544,y:918,t:1511284282379};","{x:545,y:918,t:1511284282391};","{x:545,y:917,t:1511284282408};","{x:546,y:917,t:1511284282492};","{x:547,y:917,t:1511284282572};","{x:548,y:917,t:1511284282603};","{x:550,y:916,t:1511284282611};","{x:551,y:916,t:1511284282643};","{x:553,y:914,t:1511284282660};","{x:554,y:914,t:1511284282675};","{x:556,y:913,t:1511284282691};","{x:558,y:913,t:1511284282708};","{x:560,y:913,t:1511284282725};","{x:563,y:913,t:1511284282741};","{x:566,y:912,t:1511284282758};","{x:572,y:912,t:1511284282775};","{x:578,y:912,t:1511284282791};","{x:586,y:912,t:1511284282808};","{x:594,y:912,t:1511284282825};","{x:601,y:912,t:1511284282841};","{x:610,y:912,t:1511284282859};","{x:613,y:912,t:1511284282875};","{x:624,y:912,t:1511284282891};","{x:629,y:912,t:1511284282908};","{x:630,y:912,t:1511284283604};","{x:631,y:912,t:1511284283652};","{x:636,y:912,t:1511284284468};","{x:642,y:912,t:1511284284476};","{x:653,y:912,t:1511284284493};","{x:667,y:912,t:1511284284509};","{x:680,y:912,t:1511284284526};","{x:689,y:912,t:1511284284543};","{x:701,y:912,t:1511284284559};","{x:716,y:912,t:1511284284576};","{x:723,y:912,t:1511284284593};","{x:729,y:912,t:1511284284609};","{x:736,y:912,t:1511284284627};","{x:742,y:912,t:1511284284643};","{x:753,y:912,t:1511284284660};","{x:761,y:912,t:1511284284677};","{x:768,y:912,t:1511284284694};","{x:778,y:914,t:1511284284710};","{x:795,y:916,t:1511284284727};","{x:805,y:919,t:1511284284744};","{x:818,y:920,t:1511284284760};","{x:830,y:922,t:1511284284777};","{x:840,y:924,t:1511284284794};","{x:849,y:925,t:1511284284810};","{x:854,y:926,t:1511284284827};","{x:865,y:928,t:1511284284844};","{x:870,y:929,t:1511284284860};","{x:877,y:929,t:1511284284877};","{x:882,y:930,t:1511284284894};","{x:885,y:930,t:1511284284910};","{x:888,y:932,t:1511284284927};","{x:892,y:932,t:1511284284944};","{x:896,y:933,t:1511284284960};","{x:902,y:933,t:1511284284977};","{x:913,y:934,t:1511284284994};","{x:926,y:937,t:1511284285011};","{x:935,y:938,t:1511284285027};","{x:946,y:939,t:1511284285043};","{x:955,y:942,t:1511284285061};","{x:961,y:943,t:1511284285077};","{x:966,y:943,t:1511284285094};","{x:973,y:943,t:1511284285111};","{x:980,y:945,t:1511284285127};","{x:986,y:946,t:1511284285144};","{x:994,y:947,t:1511284285161};","{x:1001,y:947,t:1511284285177};","{x:1008,y:947,t:1511284285194};","{x:1015,y:949,t:1511284285211};","{x:1022,y:950,t:1511284285227};","{x:1031,y:952,t:1511284285243};","{x:1038,y:953,t:1511284285261};","{x:1043,y:953,t:1511284285277};","{x:1046,y:953,t:1511284285294};","{x:1049,y:954,t:1511284285311};","{x:1052,y:954,t:1511284285327};","{x:1053,y:954,t:1511284285347};","{x:1055,y:954,t:1511284285363};","{x:1056,y:954,t:1511284285387};","{x:1057,y:954,t:1511284285411};","{x:1056,y:954,t:1511284285580};","{x:1055,y:954,t:1511284285603};","{x:1053,y:954,t:1511284285611};","{x:1052,y:954,t:1511284285628};","{x:1050,y:954,t:1511284285644};","{x:1049,y:954,t:1511284285661};","{x:1048,y:954,t:1511284285876};","{x:1047,y:954,t:1511284285891};","{x:1046,y:954,t:1511284285908};","{x:1045,y:954,t:1511284285915};","{x:1044,y:954,t:1511284285928};","{x:1042,y:954,t:1511284285945};","{x:1041,y:954,t:1511284285961};","{x:1039,y:954,t:1511284285978};","{x:1036,y:953,t:1511284285995};","{x:1031,y:952,t:1511284286011};","{x:1029,y:950,t:1511284286027};","{x:1026,y:949,t:1511284286045};","{x:1024,y:949,t:1511284286067};","{x:1023,y:948,t:1511284286083};","{x:1023,y:947,t:1511284286260};","{x:1022,y:947,t:1511284286275};","{x:1021,y:947,t:1511284286291};","{x:1020,y:947,t:1511284286556};","{x:1018,y:947,t:1511284286571};","{x:1018,y:948,t:1511284286579};","{x:1017,y:948,t:1511284286595};","{x:1015,y:949,t:1511284286612};","{x:1013,y:949,t:1511284286628};","{x:1012,y:950,t:1511284286645};","{x:1010,y:950,t:1511284286662};","{x:1010,y:948,t:1511284288125};","{x:1012,y:946,t:1511284288132};","{x:1012,y:944,t:1511284288147};","{x:1014,y:942,t:1511284288164};","{x:1015,y:941,t:1511284288181};","{x:1015,y:940,t:1511284288197};","{x:1016,y:939,t:1511284288214};","{x:1016,y:938,t:1511284288231};","{x:1016,y:937,t:1511284295998};","{x:1019,y:934,t:1511284296006};","{x:1023,y:928,t:1511284296022};","{x:1031,y:917,t:1511284296038};","{x:1042,y:906,t:1511284296055};","{x:1056,y:894,t:1511284296072};","{x:1070,y:882,t:1511284296089};","{x:1086,y:870,t:1511284296105};","{x:1108,y:854,t:1511284296122};","{x:1138,y:831,t:1511284296139};","{x:1177,y:806,t:1511284296155};","{x:1223,y:779,t:1511284296172};","{x:1284,y:751,t:1511284296189};","{x:1341,y:720,t:1511284296205};","{x:1408,y:682,t:1511284296222};","{x:1440,y:665,t:1511284296238};","{x:1468,y:648,t:1511284296255};","{x:1485,y:636,t:1511284296272};","{x:1498,y:625,t:1511284296289};","{x:1507,y:616,t:1511284296305};","{x:1514,y:606,t:1511284296322};","{x:1517,y:592,t:1511284296339};","{x:1517,y:573,t:1511284296355};","{x:1517,y:554,t:1511284296372};","{x:1511,y:538,t:1511284296389};","{x:1500,y:520,t:1511284296405};","{x:1478,y:500,t:1511284296422};","{x:1460,y:489,t:1511284296439};","{x:1443,y:479,t:1511284296456};","{x:1428,y:474,t:1511284296472};","{x:1416,y:470,t:1511284296489};","{x:1409,y:468,t:1511284296506};","{x:1401,y:467,t:1511284296522};","{x:1397,y:466,t:1511284296539};","{x:1395,y:465,t:1511284296566};","{x:1394,y:464,t:1511284296590};","{x:1394,y:462,t:1511284296606};","{x:1394,y:460,t:1511284296622};","{x:1394,y:458,t:1511284296639};","{x:1394,y:457,t:1511284296656};","{x:1394,y:455,t:1511284296672};","{x:1394,y:452,t:1511284296689};","{x:1393,y:450,t:1511284296706};","{x:1392,y:448,t:1511284296722};","{x:1392,y:446,t:1511284296739};","{x:1392,y:445,t:1511284296758};","{x:1391,y:443,t:1511284296822};","{x:1391,y:442,t:1511284296894};","{x:1391,y:441,t:1511284296906};","{x:1391,y:440,t:1511284296923};","{x:1390,y:438,t:1511284296939};","{x:1390,y:437,t:1511284296956};","{x:1390,y:436,t:1511284296973};","{x:1390,y:434,t:1511284296989};","{x:1390,y:431,t:1511284297006};","{x:1390,y:429,t:1511284297022};","{x:1388,y:427,t:1511284297039};","{x:1388,y:425,t:1511284297056};","{x:1388,y:424,t:1511284297073};","{x:1387,y:424,t:1511284297182};","{x:1386,y:424,t:1511284297206};","{x:1385,y:424,t:1511284297222};","{x:1384,y:424,t:1511284297239};","{x:1381,y:427,t:1511284297271};","{x:1375,y:433,t:1511284297289};","{x:1370,y:436,t:1511284297307};","{x:1366,y:437,t:1511284297322};","{x:1363,y:438,t:1511284297339};","{x:1362,y:438,t:1511284297493};","{x:1362,y:437,t:1511284297526};","{x:1362,y:436,t:1511284297542};","{x:1362,y:435,t:1511284297590};","{x:1362,y:434,t:1511284297606};","{x:1362,y:433,t:1511284297623};","{x:1362,y:432,t:1511284297640};","{x:1362,y:431,t:1511284297656};","{x:1363,y:431,t:1511284297672};","{x:1363,y:430,t:1511284297690};","{x:1364,y:429,t:1511284297707};","{x:1364,y:428,t:1511284297725};","{x:1365,y:427,t:1511284297739};","{x:1366,y:426,t:1511284297773};","{x:1368,y:426,t:1511284297805};","{x:1369,y:425,t:1511284297821};","{x:1371,y:425,t:1511284297934};","{x:1371,y:426,t:1511284298054};","{x:1371,y:427,t:1511284298111};","{x:1372,y:428,t:1511284298293};","{x:1372,y:429,t:1511284300494};","{x:1374,y:429,t:1511284300862};","{x:1375,y:429,t:1511284301087};","{x:1375,y:431,t:1511284301326};","{x:1373,y:444,t:1511284301349};","{x:1367,y:465,t:1511284301360};","{x:1355,y:493,t:1511284301376};","{x:1342,y:521,t:1511284301392};","{x:1324,y:556,t:1511284301408};","{x:1311,y:578,t:1511284301425};","{x:1295,y:609,t:1511284301442};","{x:1283,y:634,t:1511284301459};","{x:1269,y:659,t:1511284301475};","{x:1261,y:680,t:1511284301492};","{x:1250,y:701,t:1511284301509};","{x:1247,y:710,t:1511284301525};","{x:1241,y:720,t:1511284301542};","{x:1234,y:729,t:1511284301559};","{x:1227,y:740,t:1511284301575};","{x:1216,y:754,t:1511284301592};","{x:1207,y:768,t:1511284301609};","{x:1197,y:785,t:1511284301625};","{x:1189,y:795,t:1511284301642};","{x:1180,y:806,t:1511284301659};","{x:1171,y:816,t:1511284301675};","{x:1159,y:828,t:1511284301692};","{x:1139,y:846,t:1511284301709};","{x:1121,y:862,t:1511284301725};","{x:1103,y:877,t:1511284301742};","{x:1084,y:892,t:1511284301759};","{x:1065,y:906,t:1511284301775};","{x:1051,y:917,t:1511284301792};","{x:1039,y:925,t:1511284301809};","{x:1034,y:929,t:1511284301825};","{x:1029,y:932,t:1511284301842};","{x:1028,y:934,t:1511284301859};","{x:1025,y:936,t:1511284301877};","{x:1024,y:936,t:1511284301893};","{x:1022,y:937,t:1511284301909};","{x:1021,y:937,t:1511284301927};","{x:1020,y:938,t:1511284301943};","{x:1019,y:939,t:1511284301960};","{x:1017,y:940,t:1511284301977};","{x:1014,y:941,t:1511284301993};","{x:1011,y:942,t:1511284302010};","{x:1011,y:943,t:1511284302027};","{x:1010,y:943,t:1511284302043};","{x:1009,y:942,t:1511284302118};","{x:1010,y:937,t:1511284302127};","{x:1013,y:924,t:1511284302143};","{x:1017,y:913,t:1511284302160};","{x:1021,y:901,t:1511284302177};","{x:1024,y:889,t:1511284302193};","{x:1029,y:880,t:1511284302210};","{x:1034,y:870,t:1511284302227};","{x:1039,y:862,t:1511284302243};","{x:1045,y:854,t:1511284302260};","{x:1049,y:849,t:1511284302277};","{x:1051,y:845,t:1511284302294};","{x:1052,y:844,t:1511284302310};","{x:1053,y:842,t:1511284302341};","{x:1054,y:840,t:1511284302374};","{x:1055,y:839,t:1511284302389};","{x:1056,y:838,t:1511284302397};","{x:1056,y:837,t:1511284302421};","{x:1056,y:835,t:1511284302534};","{x:1055,y:835,t:1511284302544};","{x:1054,y:835,t:1511284302574};","{x:1054,y:834,t:1511284302581};","{x:1053,y:834,t:1511284302597};","{x:1052,y:834,t:1511284302613};","{x:1051,y:833,t:1511284302629};","{x:1050,y:832,t:1511284302645};","{x:1050,y:831,t:1511284302662};","{x:1049,y:831,t:1511284302677};","{x:1049,y:830,t:1511284302694};","{x:1049,y:827,t:1511284302711};","{x:1049,y:826,t:1511284302727};","{x:1049,y:823,t:1511284302744};","{x:1049,y:820,t:1511284302761};","{x:1049,y:815,t:1511284302777};","{x:1049,y:812,t:1511284302794};","{x:1049,y:807,t:1511284302811};","{x:1051,y:803,t:1511284302827};","{x:1053,y:798,t:1511284302844};","{x:1058,y:791,t:1511284302862};","{x:1059,y:788,t:1511284302876};","{x:1069,y:775,t:1511284302893};","{x:1078,y:765,t:1511284302910};","{x:1085,y:756,t:1511284302926};","{x:1092,y:745,t:1511284302943};","{x:1103,y:730,t:1511284302960};","{x:1112,y:718,t:1511284302976};","{x:1123,y:703,t:1511284302993};","{x:1132,y:690,t:1511284303010};","{x:1138,y:679,t:1511284303026};","{x:1144,y:669,t:1511284303043};","{x:1150,y:658,t:1511284303061};","{x:1151,y:655,t:1511284303076};","{x:1153,y:648,t:1511284303093};","{x:1153,y:644,t:1511284303110};","{x:1154,y:639,t:1511284303127};","{x:1154,y:634,t:1511284303143};","{x:1155,y:630,t:1511284303161};","{x:1155,y:627,t:1511284303178};","{x:1155,y:624,t:1511284303193};","{x:1155,y:622,t:1511284303210};","{x:1155,y:621,t:1511284303228};","{x:1155,y:619,t:1511284303244};","{x:1155,y:617,t:1511284303262};","{x:1156,y:616,t:1511284303278};","{x:1156,y:614,t:1511284303294};","{x:1156,y:613,t:1511284303317};","{x:1155,y:614,t:1511284304406};","{x:1153,y:616,t:1511284304413};","{x:1150,y:620,t:1511284304428};","{x:1142,y:632,t:1511284304445};","{x:1135,y:643,t:1511284304462};","{x:1130,y:651,t:1511284304479};","{x:1124,y:662,t:1511284304495};","{x:1117,y:673,t:1511284304512};","{x:1112,y:682,t:1511284304529};","{x:1107,y:691,t:1511284304545};","{x:1103,y:697,t:1511284304561};","{x:1102,y:702,t:1511284304578};","{x:1100,y:704,t:1511284304594};","{x:1100,y:707,t:1511284304611};","{x:1100,y:709,t:1511284304629};","{x:1100,y:710,t:1511284304645};","{x:1100,y:711,t:1511284304661};","{x:1100,y:712,t:1511284304678};","{x:1100,y:713,t:1511284304701};","{x:1100,y:714,t:1511284304741};","{x:1100,y:715,t:1511284304782};","{x:1100,y:716,t:1511284304813};","{x:1101,y:716,t:1511284305271};","{x:1105,y:713,t:1511284305280};","{x:1115,y:708,t:1511284305297};","{x:1124,y:703,t:1511284305313};","{x:1133,y:698,t:1511284305330};","{x:1138,y:697,t:1511284305347};","{x:1140,y:696,t:1511284305364};","{x:1140,y:695,t:1511284305399};","{x:1141,y:695,t:1511284305414};","{x:1142,y:694,t:1511284305430};","{x:1147,y:690,t:1511284305446};","{x:1155,y:684,t:1511284305464};","{x:1167,y:675,t:1511284305480};","{x:1183,y:664,t:1511284305497};","{x:1203,y:650,t:1511284305514};","{x:1225,y:636,t:1511284305530};","{x:1245,y:621,t:1511284305547};","{x:1262,y:609,t:1511284305564};","{x:1273,y:601,t:1511284305580};","{x:1284,y:591,t:1511284305597};","{x:1293,y:579,t:1511284305614};","{x:1303,y:565,t:1511284305630};","{x:1311,y:552,t:1511284305647};","{x:1313,y:548,t:1511284305664};","{x:1313,y:547,t:1511284305680};","{x:1314,y:547,t:1511284305927};","{x:1315,y:546,t:1511284305934};","{x:1316,y:545,t:1511284305950};","{x:1316,y:544,t:1511284305964};","{x:1318,y:542,t:1511284305981};","{x:1320,y:540,t:1511284305997};","{x:1322,y:537,t:1511284306014};","{x:1324,y:535,t:1511284306030};","{x:1326,y:533,t:1511284306048};","{x:1329,y:530,t:1511284306064};","{x:1332,y:526,t:1511284306081};","{x:1335,y:523,t:1511284306097};","{x:1336,y:521,t:1511284306114};","{x:1337,y:520,t:1511284306131};","{x:1338,y:519,t:1511284306183};","{x:1338,y:517,t:1511284306198};","{x:1339,y:517,t:1511284306214};","{x:1341,y:515,t:1511284306230};","{x:1341,y:514,t:1511284306254};","{x:1342,y:514,t:1511284306264};","{x:1344,y:512,t:1511284306281};","{x:1344,y:511,t:1511284306298};","{x:1346,y:510,t:1511284306351};","{x:1347,y:510,t:1511284306364};","{x:1352,y:508,t:1511284306381};","{x:1355,y:507,t:1511284306398};","{x:1357,y:507,t:1511284306438};","{x:1358,y:506,t:1511284306470};","{x:1359,y:505,t:1511284306486};","{x:1360,y:505,t:1511284306498};","{x:1366,y:501,t:1511284306514};","{x:1373,y:495,t:1511284306531};","{x:1386,y:486,t:1511284306548};","{x:1395,y:479,t:1511284306563};","{x:1399,y:476,t:1511284306580};","{x:1402,y:474,t:1511284306597};","{x:1405,y:468,t:1511284306613};","{x:1406,y:462,t:1511284306630};","{x:1407,y:457,t:1511284306647};","{x:1407,y:451,t:1511284306664};","{x:1407,y:446,t:1511284306680};","{x:1407,y:442,t:1511284306697};","{x:1407,y:440,t:1511284306714};","{x:1407,y:439,t:1511284306730};","{x:1407,y:437,t:1511284306747};","{x:1407,y:436,t:1511284306764};","{x:1405,y:432,t:1511284306780};","{x:1402,y:428,t:1511284306797};","{x:1399,y:424,t:1511284306813};","{x:1398,y:422,t:1511284306830};","{x:1397,y:422,t:1511284306847};","{x:1396,y:422,t:1511284306864};","{x:1395,y:422,t:1511284306880};","{x:1393,y:422,t:1511284306897};","{x:1389,y:422,t:1511284306914};","{x:1385,y:425,t:1511284306930};","{x:1382,y:427,t:1511284306947};","{x:1378,y:428,t:1511284306971};","{x:1377,y:428,t:1511284306997};","{x:1376,y:428,t:1511284307013};","{x:1375,y:429,t:1511284307031};","{x:1374,y:430,t:1511284307047};","{x:1373,y:432,t:1511284307077};","{x:1372,y:433,t:1511284307085};","{x:1371,y:434,t:1511284307103};","{x:1371,y:435,t:1511284307117};","{x:1370,y:436,t:1511284307131};","{x:1369,y:436,t:1511284307147};","{x:1370,y:436,t:1511284307430};","{x:1371,y:436,t:1511284307438};","{x:1372,y:436,t:1511284307454};","{x:1373,y:436,t:1511284307465};","{x:1374,y:436,t:1511284307494};","{x:1374,y:435,t:1511284307505};","{x:1375,y:435,t:1511284307531};","{x:1376,y:435,t:1511284307548};","{x:1377,y:435,t:1511284307565};","{x:1378,y:434,t:1511284307581};","{x:1379,y:434,t:1511284307598};","{x:1380,y:434,t:1511284307637};","{x:1381,y:434,t:1511284307656};","{x:1381,y:433,t:1511284307667};","{x:1382,y:433,t:1511284307700};","{x:1382,y:432,t:1511284307725};","{x:1382,y:433,t:1511284308158};","{x:1382,y:434,t:1511284308174};","{x:1382,y:435,t:1511284308398};","{x:1381,y:436,t:1511284308416};","{x:1379,y:437,t:1511284308433};","{x:1378,y:437,t:1511284308449};","{x:1377,y:438,t:1511284308466};","{x:1377,y:439,t:1511284308501};","{x:1376,y:439,t:1511284308614};","{x:1375,y:439,t:1511284308774};","{x:1374,y:438,t:1511284308782};","{x:1374,y:436,t:1511284308806};","{x:1372,y:435,t:1511284308853};","{x:1372,y:434,t:1511284309023};","{x:1372,y:433,t:1511284309054};","{x:1372,y:432,t:1511284309077};","{x:1372,y:431,t:1511284309205};","{x:1372,y:430,t:1511284309278};","{x:1372,y:429,t:1511284309374};","{x:1372,y:428,t:1511284309406};","{x:1373,y:427,t:1511284309685};","{x:1372,y:428,t:1511284336110};","{x:1365,y:438,t:1511284336121};","{x:1327,y:487,t:1511284336147};","{x:1283,y:527,t:1511284336163};","{x:1224,y:594,t:1511284336187};","{x:1195,y:628,t:1511284336204};","{x:1176,y:653,t:1511284336220};","{x:1140,y:700,t:1511284336237};","{x:1118,y:727,t:1511284336254};","{x:1096,y:753,t:1511284336270};","{x:1078,y:776,t:1511284336287};","{x:1066,y:789,t:1511284336304};","{x:1057,y:803,t:1511284336321};","{x:1048,y:815,t:1511284336337};","{x:1045,y:821,t:1511284336354};","{x:1043,y:823,t:1511284336371};","{x:1041,y:823,t:1511284336494};","{x:1038,y:825,t:1511284336505};","{x:1033,y:825,t:1511284336522};","{x:1024,y:827,t:1511284336538};","{x:1015,y:829,t:1511284336555};","{x:1011,y:829,t:1511284336572};","{x:1007,y:829,t:1511284336588};","{x:1006,y:829,t:1511284336605};","{x:1005,y:829,t:1511284336622};","{x:1002,y:829,t:1511284336638};","{x:998,y:829,t:1511284336655};","{x:993,y:829,t:1511284336672};","{x:988,y:829,t:1511284336688};","{x:985,y:829,t:1511284336705};","{x:984,y:829,t:1511284336722};","{x:983,y:829,t:1511284336738};","{x:982,y:829,t:1511284336773};","{x:981,y:828,t:1511284336804};","{x:980,y:828,t:1511284336837};","{x:979,y:828,t:1511284336973};","{x:979,y:827,t:1511284337126};","{x:979,y:826,t:1511284337138};","{x:983,y:825,t:1511284337160};","{x:987,y:823,t:1511284337171};","{x:991,y:822,t:1511284337188};","{x:995,y:821,t:1511284337205};","{x:996,y:821,t:1511284337221};","{x:997,y:820,t:1511284337245};","{x:998,y:820,t:1511284337293};","{x:999,y:819,t:1511284337305};","{x:1001,y:819,t:1511284337322};","{x:1002,y:819,t:1511284337338};","{x:1005,y:818,t:1511284337355};","{x:1008,y:818,t:1511284337372};","{x:1013,y:818,t:1511284337388};","{x:1021,y:818,t:1511284337405};","{x:1024,y:818,t:1511284337422};","{x:1031,y:819,t:1511284337438};","{x:1036,y:820,t:1511284337455};","{x:1043,y:821,t:1511284337473};","{x:1047,y:821,t:1511284337489};","{x:1049,y:821,t:1511284337506};","{x:1050,y:821,t:1511284337523};","{x:1052,y:821,t:1511284337566};","{x:1053,y:821,t:1511284337614};","{x:1054,y:821,t:1511284337625};","{x:1056,y:820,t:1511284337638};","{x:1058,y:820,t:1511284337661};","{x:1059,y:820,t:1511284337672};","{x:1062,y:819,t:1511284337688};","{x:1063,y:818,t:1511284337705};","{x:1065,y:818,t:1511284337722};","{x:1066,y:818,t:1511284337741};","{x:1068,y:818,t:1511284337755};","{x:1071,y:818,t:1511284337772};","{x:1076,y:817,t:1511284337789};","{x:1078,y:816,t:1511284337805};","{x:1079,y:816,t:1511284337822};","{x:1081,y:816,t:1511284337839};","{x:1078,y:816,t:1511284337941};","{x:1076,y:816,t:1511284337955};","{x:1070,y:817,t:1511284337973};","{x:1060,y:820,t:1511284337989};","{x:1051,y:821,t:1511284338006};","{x:1040,y:822,t:1511284338023};","{x:1026,y:823,t:1511284338040};","{x:1008,y:823,t:1511284338056};","{x:986,y:823,t:1511284338073};","{x:966,y:823,t:1511284338090};","{x:945,y:823,t:1511284338106};","{x:927,y:820,t:1511284338123};","{x:905,y:814,t:1511284338140};","{x:882,y:808,t:1511284338156};","{x:858,y:804,t:1511284338173};","{x:829,y:801,t:1511284338189};","{x:807,y:797,t:1511284338206};","{x:788,y:793,t:1511284338222};","{x:769,y:788,t:1511284338239};","{x:752,y:783,t:1511284338256};","{x:737,y:779,t:1511284338272};","{x:724,y:775,t:1511284338289};","{x:712,y:771,t:1511284338306};","{x:695,y:764,t:1511284338322};","{x:671,y:753,t:1511284338339};","{x:636,y:739,t:1511284338356};","{x:598,y:721,t:1511284338373};","{x:539,y:698,t:1511284338389};","{x:503,y:689,t:1511284338406};","{x:469,y:679,t:1511284338422};","{x:437,y:672,t:1511284338439};","{x:408,y:670,t:1511284338456};","{x:374,y:666,t:1511284338473};","{x:345,y:664,t:1511284338489};","{x:322,y:664,t:1511284338506};","{x:306,y:664,t:1511284338523};","{x:293,y:662,t:1511284338539};","{x:284,y:661,t:1511284338557};","{x:280,y:660,t:1511284338573};","{x:276,y:660,t:1511284338589};","{x:274,y:660,t:1511284338606};","{x:272,y:660,t:1511284338623};","{x:270,y:660,t:1511284338639};","{x:267,y:660,t:1511284338656};","{x:266,y:660,t:1511284338673};","{x:266,y:659,t:1511284338757};","{x:270,y:658,t:1511284338773};","{x:272,y:657,t:1511284338790};","{x:274,y:657,t:1511284338806};","{x:275,y:657,t:1511284338823};","{x:278,y:656,t:1511284338839};","{x:284,y:653,t:1511284338856};","{x:288,y:650,t:1511284338873};","{x:293,y:649,t:1511284338889};","{x:297,y:647,t:1511284338906};","{x:299,y:646,t:1511284338923};","{x:300,y:645,t:1511284338940};","{x:301,y:645,t:1511284338965};","{x:302,y:645,t:1511284338989};","{x:302,y:644,t:1511284339006};","{x:303,y:643,t:1511284339023};","{x:303,y:642,t:1511284339045};","{x:303,y:641,t:1511284339063};","{x:303,y:640,t:1511284339077};","{x:303,y:638,t:1511284339093};","{x:303,y:637,t:1511284339106};","{x:305,y:635,t:1511284339124};","{x:305,y:634,t:1511284339140};","{x:307,y:634,t:1511284339516};","{x:309,y:634,t:1511284339524};","{x:311,y:634,t:1511284339540};","{x:314,y:634,t:1511284339556};","{x:315,y:634,t:1511284339573};","{x:316,y:634,t:1511284339590};","{x:317,y:634,t:1511284339607};","{x:321,y:635,t:1511284339623};","{x:332,y:640,t:1511284339640};","{x:342,y:645,t:1511284339657};","{x:350,y:650,t:1511284339673};","{x:356,y:654,t:1511284339690};","{x:360,y:656,t:1511284339707};","{x:362,y:657,t:1511284339723};","{x:363,y:660,t:1511284339741};","{x:366,y:666,t:1511284339757};","{x:371,y:672,t:1511284339773};","{x:375,y:676,t:1511284339790};","{x:378,y:681,t:1511284339807};","{x:380,y:683,t:1511284339824};","{x:380,y:684,t:1511284339845};","{x:381,y:684,t:1511284339862};","{x:383,y:685,t:1511284339877};","{x:384,y:686,t:1511284339890};","{x:385,y:687,t:1511284339907};","{x:385,y:688,t:1511284339925};","{x:387,y:689,t:1511284339940};","{x:388,y:690,t:1511284339981};","{x:389,y:691,t:1511284339991};","{x:389,y:692,t:1511284340007};","{x:389,y:694,t:1511284340024};","{x:391,y:696,t:1511284340040};","{x:391,y:698,t:1511284340060};","{x:392,y:698,t:1511284340093};","{x:394,y:698,t:1511284340298};","{x:395,y:698,t:1511284340341};","{x:397,y:698,t:1511284340565};","{x:398,y:698,t:1511284340575};","{x:403,y:698,t:1511284340592};","{x:413,y:702,t:1511284340609};","{x:425,y:707,t:1511284340625};","{x:442,y:717,t:1511284340642};","{x:464,y:728,t:1511284340659};","{x:492,y:744,t:1511284340675};","{x:528,y:765,t:1511284340692};","{x:569,y:791,t:1511284340709};","{x:618,y:819,t:1511284340725};","{x:675,y:853,t:1511284340742};","{x:708,y:872,t:1511284340759};","{x:740,y:891,t:1511284340775};","{x:762,y:902,t:1511284340792};","{x:780,y:911,t:1511284340809};","{x:791,y:916,t:1511284340825};","{x:798,y:919,t:1511284340842};","{x:801,y:922,t:1511284340859};","{x:803,y:923,t:1511284341469};","{x:808,y:925,t:1511284341477};","{x:812,y:931,t:1511284341493};","{x:821,y:944,t:1511284341509};","{x:838,y:960,t:1511284341526};","{x:845,y:970,t:1511284341543};","{x:846,y:973,t:1511284341559};","{x:847,y:973,t:1511284341576};"],"block":"triangular_scaffolded","hovered":"-D -D -D -D -D -D -A -C -A -A ","clicked":[["answer","clicked"],["X ","false"],["C ","false"],["O ","false"],["I ","false"],["J ","false"],["A ","false"],["H ","false"],["F ","false"],["K ","false"],["D ","false"],["U ","false"],["E ","false"],["G ","false"],["B ","false"],["Z ","false"]],"answer":["D"],"orth_correct":0,"correct":0,"axis":"full","impasse":1,"explicit":3,"q":2,"question":"starts","scenario":"acme","condition":"311","session":"delta","graph":"triangular","experiment":"2YP3","subject":"061RN","internal_node_id":"0.0-5.0-1.0","time_elapsed":348899,"trial_index":6,"trial_type":"html","url":"../views/src/external/stimulus.html","rt":59972},{"mouseLog":["{x:1911,y:1911,t:0};","{x:846,y:973,t:1511284342255};","{x:842,y:973,t:1511284342262};","{x:839,y:973,t:1511284342277};","{x:832,y:973,t:1511284342294};","{x:823,y:970,t:1511284342310};","{x:814,y:966,t:1511284342326};","{x:805,y:960,t:1511284342343};","{x:793,y:954,t:1511284342360};","{x:783,y:950,t:1511284342376};","{x:771,y:943,t:1511284342393};","{x:760,y:936,t:1511284342410};","{x:746,y:927,t:1511284342427};","{x:737,y:920,t:1511284342443};","{x:725,y:912,t:1511284342460};","{x:713,y:902,t:1511284342477};","{x:703,y:895,t:1511284342493};","{x:696,y:889,t:1511284342510};","{x:693,y:888,t:1511284342527};","{x:691,y:886,t:1511284342543};","{x:688,y:884,t:1511284342560};","{x:686,y:882,t:1511284342577};","{x:685,y:881,t:1511284342598};","{x:684,y:880,t:1511284342610};","{x:684,y:878,t:1511284342627};","{x:683,y:878,t:1511284342643};","{x:682,y:876,t:1511284342660};","{x:682,y:875,t:1511284342677};","{x:681,y:874,t:1511284342694};","{x:680,y:874,t:1511284342742};","{x:679,y:872,t:1511284342766};","{x:678,y:872,t:1511284342798};","{x:677,y:872,t:1511284342822};","{x:676,y:872,t:1511284342838};","{x:675,y:872,t:1511284342854};","{x:674,y:872,t:1511284342878};","{x:673,y:872,t:1511284342894};","{x:672,y:872,t:1511284342910};","{x:672,y:870,t:1511284344813};","{x:673,y:869,t:1511284344828};","{x:679,y:865,t:1511284344845};","{x:684,y:862,t:1511284344861};","{x:695,y:854,t:1511284344878};","{x:707,y:848,t:1511284344895};","{x:723,y:839,t:1511284344912};","{x:741,y:829,t:1511284344928};","{x:762,y:816,t:1511284344945};","{x:786,y:802,t:1511284344962};","{x:807,y:790,t:1511284344978};","{x:827,y:779,t:1511284344995};","{x:848,y:767,t:1511284345012};","{x:858,y:761,t:1511284345029};","{x:867,y:754,t:1511284345046};","{x:870,y:752,t:1511284345062};","{x:871,y:751,t:1511284345079};","{x:874,y:750,t:1511284345358};","{x:883,y:749,t:1511284345366};","{x:888,y:749,t:1511284345379};","{x:902,y:746,t:1511284345396};","{x:919,y:744,t:1511284345413};","{x:951,y:733,t:1511284345430};","{x:969,y:725,t:1511284345446};","{x:988,y:714,t:1511284345462};","{x:1008,y:705,t:1511284345480};","{x:1028,y:697,t:1511284345496};","{x:1047,y:684,t:1511284345513};","{x:1064,y:671,t:1511284345530};","{x:1081,y:660,t:1511284345546};","{x:1091,y:651,t:1511284345563};","{x:1099,y:646,t:1511284345580};","{x:1104,y:642,t:1511284345596};","{x:1107,y:639,t:1511284345613};","{x:1110,y:635,t:1511284345630};","{x:1112,y:632,t:1511284345646};","{x:1115,y:629,t:1511284345663};","{x:1118,y:626,t:1511284345680};","{x:1122,y:623,t:1511284345696};","{x:1124,y:621,t:1511284345713};","{x:1126,y:619,t:1511284345730};","{x:1128,y:618,t:1511284345746};","{x:1128,y:617,t:1511284345763};","{x:1129,y:617,t:1511284345780};","{x:1128,y:617,t:1511284345886};","{x:1127,y:618,t:1511284345897};","{x:1126,y:618,t:1511284345913};","{x:1126,y:619,t:1511284346150};","{x:1127,y:619,t:1511284346163};","{x:1145,y:619,t:1511284346180};","{x:1162,y:619,t:1511284346197};","{x:1171,y:619,t:1511284346213};","{x:1174,y:619,t:1511284346230};","{x:1175,y:619,t:1511284346247};","{x:1176,y:620,t:1511284346358};","{x:1176,y:621,t:1511284346366};","{x:1176,y:623,t:1511284346380};","{x:1174,y:628,t:1511284346397};","{x:1170,y:633,t:1511284346413};","{x:1158,y:649,t:1511284346430};","{x:1148,y:659,t:1511284346447};","{x:1133,y:672,t:1511284346464};","{x:1112,y:683,t:1511284346480};","{x:1101,y:692,t:1511284346497};","{x:1093,y:698,t:1511284346514};","{x:1087,y:704,t:1511284346530};","{x:1082,y:710,t:1511284346547};","{x:1079,y:714,t:1511284346564};","{x:1076,y:718,t:1511284346580};","{x:1075,y:720,t:1511284346597};","{x:1072,y:726,t:1511284346614};","{x:1069,y:732,t:1511284346630};","{x:1068,y:734,t:1511284346647};","{x:1067,y:737,t:1511284346664};","{x:1065,y:739,t:1511284346680};","{x:1064,y:742,t:1511284346697};","{x:1063,y:745,t:1511284346714};","{x:1060,y:750,t:1511284346730};","{x:1057,y:755,t:1511284346747};","{x:1056,y:758,t:1511284346764};","{x:1053,y:761,t:1511284346780};","{x:1049,y:766,t:1511284346797};","{x:1040,y:779,t:1511284346814};","{x:1035,y:789,t:1511284346830};","{x:1029,y:796,t:1511284346847};","{x:1025,y:801,t:1511284346864};","{x:1022,y:805,t:1511284346881};","{x:1020,y:806,t:1511284346897};","{x:1019,y:805,t:1511284346942};","{x:1019,y:801,t:1511284346950};","{x:1019,y:794,t:1511284346964};","{x:1021,y:778,t:1511284346981};","{x:1022,y:766,t:1511284346997};","{x:1023,y:751,t:1511284347014};","{x:1023,y:744,t:1511284347030};","{x:1023,y:743,t:1511284347046};","{x:1023,y:742,t:1511284347064};","{x:1023,y:741,t:1511284347094};","{x:1020,y:743,t:1511284347110};","{x:1017,y:748,t:1511284347118};","{x:1012,y:754,t:1511284347131};","{x:1004,y:770,t:1511284347146};","{x:995,y:785,t:1511284347163};","{x:987,y:799,t:1511284347180};","{x:981,y:807,t:1511284347197};","{x:978,y:811,t:1511284347213};","{x:975,y:817,t:1511284347230};","{x:973,y:819,t:1511284347247};","{x:971,y:821,t:1511284347263};","{x:971,y:822,t:1511284347280};","{x:971,y:823,t:1511284347390};","{x:971,y:825,t:1511284347397};","{x:971,y:828,t:1511284347418};","{x:972,y:830,t:1511284347430};","{x:973,y:834,t:1511284347447};","{x:974,y:834,t:1511284347463};","{x:975,y:834,t:1511284348750};","{x:976,y:834,t:1511284348765};","{x:977,y:834,t:1511284348790};","{x:978,y:834,t:1511284348814};","{x:979,y:834,t:1511284348830};","{x:980,y:834,t:1511284348845};","{x:983,y:835,t:1511284348899};","{x:985,y:837,t:1511284348915};","{x:986,y:838,t:1511284348932};","{x:988,y:839,t:1511284348948};","{x:990,y:841,t:1511284348965};","{x:990,y:842,t:1511284348982};","{x:991,y:843,t:1511284348998};","{x:993,y:845,t:1511284349015};","{x:994,y:847,t:1511284349032};","{x:997,y:849,t:1511284349048};","{x:1000,y:852,t:1511284349065};","{x:1002,y:854,t:1511284349082};","{x:1003,y:855,t:1511284349098};","{x:1004,y:856,t:1511284349115};","{x:1005,y:856,t:1511284349132};","{x:1006,y:857,t:1511284349148};","{x:1008,y:857,t:1511284349165};","{x:1009,y:857,t:1511284349182};","{x:1011,y:858,t:1511284349205};","{x:1013,y:858,t:1511284349221};","{x:1013,y:859,t:1511284349232};","{x:1014,y:859,t:1511284349248};","{x:1015,y:859,t:1511284349265};","{x:1018,y:859,t:1511284349282};","{x:1019,y:859,t:1511284349298};","{x:1020,y:859,t:1511284349315};","{x:1021,y:859,t:1511284349332};","{x:1022,y:859,t:1511284349349};","{x:1024,y:859,t:1511284349365};","{x:1027,y:859,t:1511284349382};","{x:1030,y:859,t:1511284349399};","{x:1034,y:859,t:1511284349415};","{x:1037,y:860,t:1511284349432};","{x:1043,y:861,t:1511284349449};","{x:1048,y:864,t:1511284349465};","{x:1053,y:866,t:1511284349482};","{x:1054,y:867,t:1511284349499};","{x:1056,y:868,t:1511284349515};","{x:1057,y:868,t:1511284349532};","{x:1057,y:870,t:1511284349549};","{x:1057,y:873,t:1511284349565};","{x:1054,y:879,t:1511284349582};","{x:1047,y:889,t:1511284349599};","{x:1042,y:897,t:1511284349615};","{x:1040,y:901,t:1511284349632};","{x:1039,y:904,t:1511284349649};","{x:1039,y:907,t:1511284349665};","{x:1039,y:912,t:1511284349682};","{x:1039,y:917,t:1511284349699};","{x:1039,y:921,t:1511284349716};","{x:1042,y:924,t:1511284349732};","{x:1046,y:928,t:1511284349749};","{x:1048,y:930,t:1511284349766};","{x:1050,y:932,t:1511284349782};","{x:1053,y:933,t:1511284349799};","{x:1058,y:936,t:1511284349816};","{x:1060,y:939,t:1511284349832};","{x:1063,y:941,t:1511284349849};","{x:1064,y:943,t:1511284349866};","{x:1065,y:945,t:1511284349882};","{x:1066,y:946,t:1511284349966};","{x:1069,y:944,t:1511284349983};","{x:1074,y:936,t:1511284350000};","{x:1080,y:923,t:1511284350017};","{x:1090,y:909,t:1511284350033};","{x:1097,y:894,t:1511284350050};","{x:1106,y:879,t:1511284350067};","{x:1113,y:866,t:1511284350083};","{x:1121,y:855,t:1511284350100};","{x:1126,y:848,t:1511284350117};","{x:1130,y:843,t:1511284350133};","{x:1133,y:838,t:1511284350150};","{x:1135,y:834,t:1511284350166};","{x:1135,y:831,t:1511284350183};","{x:1135,y:828,t:1511284350200};","{x:1136,y:824,t:1511284350217};","{x:1137,y:822,t:1511284350234};","{x:1137,y:817,t:1511284350250};","{x:1138,y:809,t:1511284350267};","{x:1138,y:804,t:1511284350284};","{x:1140,y:798,t:1511284350300};","{x:1141,y:795,t:1511284350317};","{x:1141,y:790,t:1511284350334};","{x:1142,y:786,t:1511284350350};","{x:1142,y:782,t:1511284350367};","{x:1145,y:777,t:1511284350384};","{x:1145,y:772,t:1511284350400};","{x:1146,y:769,t:1511284350417};","{x:1147,y:766,t:1511284350441};","{x:1148,y:764,t:1511284350466};","{x:1148,y:763,t:1511284350509};","{x:1148,y:762,t:1511284350525};","{x:1148,y:761,t:1511284350541};","{x:1148,y:760,t:1511284350565};","{x:1148,y:759,t:1511284350582};","{x:1148,y:758,t:1511284350605};","{x:1147,y:758,t:1511284350950};","{x:1144,y:761,t:1511284350971};","{x:1140,y:767,t:1511284350983};","{x:1137,y:770,t:1511284351016};","{x:1137,y:771,t:1511284351033};","{x:1135,y:771,t:1511284351050};","{x:1134,y:772,t:1511284351066};","{x:1132,y:774,t:1511284351083};","{x:1131,y:774,t:1511284351100};","{x:1130,y:775,t:1511284351117};","{x:1131,y:775,t:1511284351281};","{x:1131,y:774,t:1511284351289};","{x:1132,y:772,t:1511284351303};","{x:1133,y:766,t:1511284351320};","{x:1135,y:763,t:1511284351336};","{x:1135,y:762,t:1511284351353};","{x:1135,y:766,t:1511284351417};","{x:1135,y:772,t:1511284351424};","{x:1132,y:783,t:1511284351436};","{x:1123,y:810,t:1511284351453};","{x:1109,y:847,t:1511284351470};","{x:1098,y:870,t:1511284351486};","{x:1089,y:891,t:1511284351503};","{x:1075,y:912,t:1511284351520};","{x:1072,y:917,t:1511284351536};","{x:1071,y:918,t:1511284351553};","{x:1070,y:919,t:1511284351625};","{x:1069,y:919,t:1511284351637};","{x:1068,y:919,t:1511284351654};","{x:1067,y:920,t:1511284351671};","{x:1066,y:920,t:1511284351688};","{x:1063,y:921,t:1511284351704};","{x:1060,y:925,t:1511284351721};","{x:1057,y:931,t:1511284351737};","{x:1052,y:936,t:1511284351754};","{x:1047,y:945,t:1511284351771};","{x:1041,y:951,t:1511284351788};","{x:1038,y:954,t:1511284351804};","{x:1037,y:954,t:1511284351821};","{x:1039,y:953,t:1511284351888};","{x:1042,y:948,t:1511284351903};","{x:1054,y:928,t:1511284351920};","{x:1063,y:913,t:1511284351937};","{x:1074,y:894,t:1511284351953};","{x:1082,y:878,t:1511284351970};","{x:1089,y:862,t:1511284351987};","{x:1094,y:852,t:1511284352004};","{x:1096,y:841,t:1511284352020};","{x:1098,y:834,t:1511284352037};","{x:1100,y:825,t:1511284352054};","{x:1104,y:814,t:1511284352070};","{x:1107,y:806,t:1511284352087};","{x:1111,y:798,t:1511284352104};","{x:1114,y:794,t:1511284352120};","{x:1117,y:791,t:1511284352137};","{x:1120,y:787,t:1511284352154};","{x:1122,y:784,t:1511284352170};","{x:1124,y:782,t:1511284352187};","{x:1126,y:780,t:1511284352204};","{x:1130,y:777,t:1511284352220};","{x:1133,y:775,t:1511284352237};","{x:1136,y:772,t:1511284352254};","{x:1141,y:766,t:1511284352275};","{x:1145,y:761,t:1511284352287};","{x:1153,y:753,t:1511284352305};","{x:1155,y:751,t:1511284352320};","{x:1157,y:748,t:1511284352337};","{x:1158,y:747,t:1511284352354};","{x:1159,y:743,t:1511284352370};","{x:1161,y:739,t:1511284352387};","{x:1162,y:736,t:1511284352404};","{x:1164,y:732,t:1511284352421};","{x:1165,y:729,t:1511284352437};","{x:1165,y:728,t:1511284352454};","{x:1167,y:725,t:1511284352471};","{x:1167,y:722,t:1511284352487};","{x:1168,y:720,t:1511284352504};","{x:1169,y:715,t:1511284352521};","{x:1170,y:714,t:1511284352537};","{x:1170,y:711,t:1511284352554};","{x:1171,y:709,t:1511284352571};","{x:1171,y:708,t:1511284352587};","{x:1172,y:706,t:1511284352604};","{x:1172,y:705,t:1511284352649};","{x:1173,y:705,t:1511284352657};","{x:1174,y:703,t:1511284352681};","{x:1174,y:702,t:1511284352697};","{x:1174,y:700,t:1511284352713};","{x:1175,y:700,t:1511284352722};","{x:1176,y:698,t:1511284352738};","{x:1177,y:697,t:1511284352755};","{x:1178,y:694,t:1511284352772};","{x:1180,y:691,t:1511284352788};","{x:1183,y:687,t:1511284352805};","{x:1184,y:685,t:1511284352822};","{x:1188,y:681,t:1511284352838};","{x:1192,y:674,t:1511284352855};","{x:1197,y:668,t:1511284352872};","{x:1202,y:660,t:1511284352889};","{x:1205,y:657,t:1511284352905};","{x:1207,y:654,t:1511284352922};","{x:1208,y:651,t:1511284352939};","{x:1210,y:648,t:1511284352955};","{x:1211,y:646,t:1511284352972};","{x:1211,y:645,t:1511284352989};","{x:1212,y:643,t:1511284353005};","{x:1213,y:642,t:1511284353022};","{x:1213,y:641,t:1511284353121};","{x:1212,y:642,t:1511284353153};","{x:1211,y:642,t:1511284353161};","{x:1210,y:644,t:1511284353172};","{x:1209,y:648,t:1511284353189};","{x:1207,y:651,t:1511284353205};","{x:1205,y:656,t:1511284353222};","{x:1202,y:664,t:1511284353239};","{x:1198,y:672,t:1511284353255};","{x:1197,y:679,t:1511284353272};","{x:1193,y:693,t:1511284353289};","{x:1188,y:703,t:1511284353305};","{x:1185,y:711,t:1511284353322};","{x:1180,y:721,t:1511284353339};","{x:1176,y:728,t:1511284353356};","{x:1173,y:733,t:1511284353372};","{x:1170,y:738,t:1511284353389};","{x:1168,y:741,t:1511284353406};","{x:1165,y:746,t:1511284353422};","{x:1164,y:748,t:1511284353439};","{x:1162,y:751,t:1511284353456};","{x:1160,y:752,t:1511284353472};","{x:1158,y:754,t:1511284353489};","{x:1156,y:756,t:1511284353506};","{x:1154,y:758,t:1511284353522};","{x:1153,y:760,t:1511284353539};","{x:1151,y:762,t:1511284353556};","{x:1150,y:764,t:1511284353572};","{x:1148,y:766,t:1511284353596};","{x:1147,y:767,t:1511284353605};","{x:1144,y:770,t:1511284353638};","{x:1141,y:772,t:1511284353655};","{x:1139,y:773,t:1511284353671};","{x:1138,y:773,t:1511284353688};","{x:1138,y:771,t:1511284353800};","{x:1138,y:769,t:1511284353808};","{x:1138,y:767,t:1511284353822};","{x:1138,y:765,t:1511284353841};","{x:1138,y:764,t:1511284353855};","{x:1136,y:764,t:1511284354035};","{x:1131,y:764,t:1511284354055};","{x:1105,y:773,t:1511284354071};","{x:1083,y:779,t:1511284354088};","{x:1049,y:780,t:1511284354105};","{x:1013,y:780,t:1511284354122};","{x:970,y:772,t:1511284354138};","{x:905,y:751,t:1511284354155};","{x:842,y:733,t:1511284354172};","{x:759,y:711,t:1511284354189};","{x:694,y:692,t:1511284354205};","{x:633,y:673,t:1511284354222};","{x:581,y:652,t:1511284354239};","{x:554,y:640,t:1511284354255};","{x:539,y:631,t:1511284354272};","{x:538,y:631,t:1511284354344};","{x:537,y:631,t:1511284354355};","{x:530,y:631,t:1511284354372};","{x:521,y:631,t:1511284354389};","{x:505,y:630,t:1511284354405};","{x:486,y:627,t:1511284354422};","{x:467,y:626,t:1511284354439};","{x:445,y:625,t:1511284354455};","{x:412,y:622,t:1511284354472};","{x:396,y:620,t:1511284354489};","{x:383,y:620,t:1511284354505};","{x:375,y:620,t:1511284354522};","{x:371,y:620,t:1511284354539};","{x:367,y:619,t:1511284354555};","{x:363,y:619,t:1511284354572};","{x:357,y:617,t:1511284354589};","{x:347,y:615,t:1511284354606};","{x:338,y:615,t:1511284354622};","{x:329,y:615,t:1511284354639};","{x:322,y:615,t:1511284354656};","{x:319,y:615,t:1511284354672};","{x:318,y:615,t:1511284354689};","{x:317,y:615,t:1511284354706};","{x:318,y:614,t:1511284354777};","{x:319,y:613,t:1511284354789};","{x:322,y:611,t:1511284354807};","{x:323,y:610,t:1511284354823};","{x:320,y:610,t:1511284354905};","{x:316,y:610,t:1511284354913};","{x:309,y:610,t:1511284354922};","{x:299,y:611,t:1511284354939};","{x:285,y:611,t:1511284354956};","{x:269,y:611,t:1511284354972};","{x:254,y:611,t:1511284354989};","{x:243,y:611,t:1511284355006};","{x:235,y:611,t:1511284355023};","{x:228,y:611,t:1511284355039};","{x:219,y:613,t:1511284355056};","{x:215,y:615,t:1511284355073};","{x:211,y:616,t:1511284355089};","{x:209,y:618,t:1511284355106};","{x:208,y:618,t:1511284355123};","{x:206,y:619,t:1511284355139};","{x:203,y:621,t:1511284355156};","{x:202,y:622,t:1511284355173};","{x:200,y:625,t:1511284355189};","{x:198,y:627,t:1511284355206};","{x:197,y:628,t:1511284355223};","{x:196,y:629,t:1511284355240};","{x:196,y:630,t:1511284355256};","{x:197,y:630,t:1511284355312};","{x:198,y:630,t:1511284355323};","{x:200,y:630,t:1511284355339};","{x:202,y:630,t:1511284355356};","{x:205,y:629,t:1511284355372};","{x:208,y:629,t:1511284355389};","{x:212,y:626,t:1511284355406};","{x:213,y:626,t:1511284355423};","{x:215,y:625,t:1511284355439};","{x:216,y:625,t:1511284355456};","{x:217,y:623,t:1511284355496};","{x:217,y:621,t:1511284355512};","{x:217,y:620,t:1511284355523};","{x:217,y:617,t:1511284355540};","{x:217,y:616,t:1511284355556};","{x:217,y:615,t:1511284355576};","{x:217,y:614,t:1511284355633};","{x:218,y:613,t:1511284355656};","{x:219,y:611,t:1511284355673};","{x:220,y:610,t:1511284355689};","{x:220,y:609,t:1511284355801};","{x:220,y:608,t:1511284355824};","{x:220,y:607,t:1511284355840};","{x:221,y:607,t:1511284356433};","{x:222,y:607,t:1511284356513};","{x:223,y:607,t:1511284356524};","{x:224,y:607,t:1511284356609};","{x:225,y:607,t:1511284356624};","{x:226,y:607,t:1511284356641};","{x:227,y:607,t:1511284356658};","{x:228,y:607,t:1511284356680};","{x:229,y:607,t:1511284356691};","{x:230,y:607,t:1511284356736};","{x:230,y:608,t:1511284356744};","{x:231,y:608,t:1511284356776};","{x:232,y:609,t:1511284356800};","{x:233,y:610,t:1511284356816};","{x:233,y:611,t:1511284356824};","{x:234,y:611,t:1511284356841};","{x:235,y:612,t:1511284356857};","{x:235,y:614,t:1511284356880};","{x:237,y:615,t:1511284356985};","{x:239,y:617,t:1511284357016};","{x:240,y:617,t:1511284357056};","{x:241,y:617,t:1511284357080};","{x:242,y:618,t:1511284357096};","{x:243,y:618,t:1511284357112};","{x:244,y:618,t:1511284357128};","{x:245,y:619,t:1511284357144};","{x:245,y:620,t:1511284357160};","{x:246,y:620,t:1511284357174};","{x:248,y:621,t:1511284357192};","{x:250,y:623,t:1511284357208};","{x:251,y:624,t:1511284357224};","{x:253,y:626,t:1511284357241};","{x:256,y:628,t:1511284357258};","{x:261,y:631,t:1511284357275};","{x:271,y:639,t:1511284357292};","{x:279,y:645,t:1511284357308};","{x:293,y:653,t:1511284357326};","{x:301,y:658,t:1511284357341};","{x:312,y:664,t:1511284357359};","{x:325,y:670,t:1511284357376};","{x:331,y:674,t:1511284357392};","{x:341,y:679,t:1511284357408};","{x:350,y:683,t:1511284357425};","{x:362,y:688,t:1511284357442};","{x:370,y:690,t:1511284357458};","{x:376,y:691,t:1511284357476};","{x:379,y:692,t:1511284357491};","{x:382,y:694,t:1511284357508};","{x:386,y:695,t:1511284357524};","{x:390,y:696,t:1511284357541};","{x:395,y:698,t:1511284357559};","{x:399,y:700,t:1511284357576};","{x:406,y:702,t:1511284357592};","{x:414,y:707,t:1511284357609};","{x:417,y:707,t:1511284357626};","{x:421,y:708,t:1511284357642};","{x:423,y:708,t:1511284357659};","{x:427,y:709,t:1511284357676};","{x:431,y:709,t:1511284357692};","{x:435,y:710,t:1511284357709};","{x:439,y:710,t:1511284357726};","{x:443,y:711,t:1511284357742};","{x:447,y:712,t:1511284357759};","{x:451,y:713,t:1511284357777};","{x:452,y:713,t:1511284357793};","{x:454,y:714,t:1511284357809};","{x:456,y:714,t:1511284357826};","{x:457,y:714,t:1511284357843};","{x:458,y:714,t:1511284357873};","{x:459,y:715,t:1511284358010};","{x:459,y:716,t:1511284358026};","{x:460,y:717,t:1511284358106};","{x:461,y:717,t:1511284358250};","{x:459,y:718,t:1511284358259};","{x:452,y:720,t:1511284358276};","{x:444,y:720,t:1511284358293};","{x:438,y:720,t:1511284358309};","{x:436,y:720,t:1511284358326};","{x:434,y:720,t:1511284358343};","{x:433,y:720,t:1511284358368};","{x:432,y:720,t:1511284358384};","{x:431,y:720,t:1511284358424};","{x:429,y:720,t:1511284359425};","{x:426,y:720,t:1511284359432};","{x:425,y:721,t:1511284359443};","{x:424,y:721,t:1511284359460};","{x:421,y:724,t:1511284359477};","{x:419,y:724,t:1511284359493};","{x:418,y:724,t:1511284359510};"],"block":"triangular_scaffolded","hovered":"-0-C -C -Z -F -F -F -F -F ","clicked":[["answer","clicked"],["X ","false"],["C ","false"],["O ","false"],["I ","false"],["J ","false"],["A ","false"],["H ","false"],["F ","false"],["K ","false"],["D ","false"],["U ","false"],["E ","false"],["G ","false"],["B ","false"],["Z ","false"]],"answer":["F"],"orth_correct":0,"correct":1,"axis":"full","impasse":1,"explicit":3,"q":3,"question":"meets","scenario":"acme","condition":"311","session":"delta","graph":"triangular","experiment":"2YP3","subject":"061RN","internal_node_id":"0.0-5.0-2.0","time_elapsed":367255,"trial_index":7,"trial_type":"html","url":"../views/src/external/stimulus.html","rt":16813},{"mouseLog":["{x:1911,y:1911,t:0};","{x:418,y:725,t:1511284360825};","{x:420,y:727,t:1511284360841};","{x:422,y:727,t:1511284360848};","{x:425,y:728,t:1511284360861};","{x:432,y:731,t:1511284360878};","{x:440,y:732,t:1511284360895};","{x:455,y:736,t:1511284360911};","{x:478,y:743,t:1511284360929};","{x:493,y:747,t:1511284360945};","{x:507,y:752,t:1511284360961};","{x:521,y:756,t:1511284360978};","{x:531,y:758,t:1511284360995};","{x:544,y:761,t:1511284361011};","{x:556,y:763,t:1511284361028};","{x:570,y:766,t:1511284361045};","{x:579,y:767,t:1511284361061};","{x:586,y:768,t:1511284361078};","{x:592,y:768,t:1511284361095};","{x:603,y:772,t:1511284361113};","{x:606,y:772,t:1511284361129};","{x:609,y:773,t:1511284361145};","{x:610,y:773,t:1511284361162};","{x:612,y:773,t:1511284361178};","{x:613,y:773,t:1511284361195};","{x:615,y:773,t:1511284361212};","{x:616,y:773,t:1511284361228};","{x:620,y:773,t:1511284361245};","{x:622,y:773,t:1511284361262};","{x:626,y:773,t:1511284361279};","{x:630,y:773,t:1511284361296};","{x:634,y:773,t:1511284361312};","{x:639,y:773,t:1511284361329};","{x:641,y:773,t:1511284361345};","{x:644,y:773,t:1511284361362};","{x:647,y:773,t:1511284361379};","{x:649,y:773,t:1511284361395};","{x:653,y:773,t:1511284361412};","{x:656,y:773,t:1511284361429};","{x:659,y:773,t:1511284361445};","{x:662,y:773,t:1511284361462};","{x:664,y:773,t:1511284361479};","{x:669,y:773,t:1511284361495};","{x:677,y:774,t:1511284361513};","{x:682,y:775,t:1511284361529};","{x:690,y:776,t:1511284361545};","{x:696,y:776,t:1511284361562};","{x:702,y:777,t:1511284361579};","{x:707,y:777,t:1511284361596};","{x:710,y:777,t:1511284361613};","{x:713,y:777,t:1511284361629};","{x:714,y:777,t:1511284361646};","{x:716,y:777,t:1511284361662};","{x:719,y:777,t:1511284361679};","{x:723,y:777,t:1511284361697};","{x:727,y:777,t:1511284361713};","{x:730,y:777,t:1511284361729};","{x:734,y:775,t:1511284361746};","{x:740,y:774,t:1511284361762};","{x:745,y:773,t:1511284361780};","{x:752,y:771,t:1511284361797};","{x:761,y:770,t:1511284361813};","{x:772,y:769,t:1511284361830};","{x:781,y:767,t:1511284361846};","{x:790,y:766,t:1511284361863};","{x:800,y:764,t:1511284361880};","{x:818,y:760,t:1511284361897};","{x:828,y:758,t:1511284361914};","{x:836,y:757,t:1511284361930};","{x:845,y:757,t:1511284361947};","{x:852,y:755,t:1511284361964};","{x:858,y:753,t:1511284361980};","{x:865,y:751,t:1511284361997};","{x:872,y:751,t:1511284362014};","{x:882,y:751,t:1511284362030};","{x:907,y:753,t:1511284362047};","{x:953,y:771,t:1511284362064};","{x:1013,y:797,t:1511284362080};","{x:1108,y:834,t:1511284362097};","{x:1163,y:857,t:1511284362113};","{x:1210,y:869,t:1511284362130};","{x:1237,y:873,t:1511284362147};","{x:1254,y:873,t:1511284362164};","{x:1261,y:871,t:1511284362180};","{x:1267,y:868,t:1511284362197};","{x:1269,y:866,t:1511284362214};","{x:1271,y:865,t:1511284362230};","{x:1271,y:864,t:1511284362282};","{x:1272,y:864,t:1511284362297};","{x:1273,y:864,t:1511284362314};","{x:1274,y:867,t:1511284362331};","{x:1276,y:872,t:1511284362347};","{x:1276,y:878,t:1511284362364};","{x:1277,y:884,t:1511284362381};","{x:1278,y:887,t:1511284362397};","{x:1279,y:891,t:1511284362414};","{x:1280,y:893,t:1511284362430};","{x:1283,y:895,t:1511284362446};","{x:1285,y:897,t:1511284362463};","{x:1289,y:899,t:1511284362480};","{x:1290,y:900,t:1511284362496};","{x:1292,y:900,t:1511284362513};","{x:1296,y:901,t:1511284362530};","{x:1299,y:902,t:1511284362546};","{x:1302,y:903,t:1511284362563};","{x:1306,y:904,t:1511284362580};","{x:1311,y:907,t:1511284362597};","{x:1318,y:912,t:1511284362613};","{x:1325,y:917,t:1511284362630};","{x:1330,y:921,t:1511284362647};","{x:1334,y:924,t:1511284362663};","{x:1341,y:932,t:1511284362680};","{x:1345,y:936,t:1511284362697};","{x:1347,y:937,t:1511284362713};","{x:1347,y:938,t:1511284362730};","{x:1348,y:939,t:1511284362747};","{x:1349,y:939,t:1511284362763};","{x:1350,y:939,t:1511284362780};","{x:1350,y:940,t:1511284362797};","{x:1352,y:941,t:1511284362813};","{x:1353,y:942,t:1511284362830};","{x:1354,y:942,t:1511284362946};","{x:1355,y:942,t:1511284362961};","{x:1356,y:942,t:1511284362969};","{x:1357,y:942,t:1511284362985};","{x:1359,y:942,t:1511284363065};","{x:1359,y:941,t:1511284363097};","{x:1359,y:940,t:1511284363115};","{x:1359,y:939,t:1511284363131};","{x:1359,y:936,t:1511284363148};","{x:1359,y:935,t:1511284363165};","{x:1359,y:934,t:1511284363193};","{x:1359,y:932,t:1511284363225};","{x:1358,y:932,t:1511284363304};","{x:1357,y:932,t:1511284363320};","{x:1357,y:931,t:1511284363331};","{x:1355,y:929,t:1511284363347};","{x:1353,y:928,t:1511284363364};","{x:1350,y:926,t:1511284363381};","{x:1350,y:925,t:1511284363397};","{x:1348,y:925,t:1511284363414};","{x:1346,y:923,t:1511284363431};","{x:1345,y:923,t:1511284363447};","{x:1344,y:923,t:1511284363465};","{x:1343,y:922,t:1511284363481};","{x:1342,y:921,t:1511284363537};","{x:1341,y:920,t:1511284364360};","{x:1340,y:919,t:1511284364368};","{x:1338,y:918,t:1511284364382};","{x:1335,y:915,t:1511284364398};","{x:1332,y:912,t:1511284364415};","{x:1329,y:909,t:1511284364432};","{x:1327,y:907,t:1511284364448};","{x:1324,y:903,t:1511284364465};","{x:1321,y:897,t:1511284364482};","{x:1315,y:884,t:1511284364498};","{x:1307,y:872,t:1511284364515};","{x:1302,y:859,t:1511284364532};","{x:1293,y:840,t:1511284364548};","{x:1284,y:817,t:1511284364565};","{x:1270,y:786,t:1511284364582};","{x:1257,y:758,t:1511284364598};","{x:1248,y:736,t:1511284364615};","{x:1239,y:707,t:1511284364632};","{x:1233,y:687,t:1511284364648};","{x:1228,y:670,t:1511284364665};","{x:1222,y:658,t:1511284364682};","{x:1216,y:646,t:1511284364699};","{x:1209,y:636,t:1511284364715};","{x:1204,y:629,t:1511284364733};","{x:1201,y:622,t:1511284364749};","{x:1200,y:618,t:1511284364765};","{x:1198,y:612,t:1511284364782};","{x:1196,y:608,t:1511284364799};","{x:1195,y:603,t:1511284364815};","{x:1192,y:598,t:1511284364832};","{x:1191,y:593,t:1511284364849};","{x:1189,y:589,t:1511284364866};","{x:1187,y:584,t:1511284364882};","{x:1186,y:579,t:1511284364900};","{x:1183,y:573,t:1511284364920};","{x:1182,y:570,t:1511284364932};","{x:1181,y:568,t:1511284364949};","{x:1180,y:566,t:1511284364969};","{x:1180,y:565,t:1511284365016};","{x:1180,y:566,t:1511284365249};","{x:1182,y:579,t:1511284365281};","{x:1183,y:585,t:1511284365298};","{x:1188,y:597,t:1511284365315};","{x:1196,y:611,t:1511284365331};","{x:1203,y:623,t:1511284365348};","{x:1208,y:632,t:1511284365365};","{x:1216,y:646,t:1511284365381};","{x:1222,y:657,t:1511284365398};","{x:1231,y:669,t:1511284365415};","{x:1240,y:686,t:1511284365432};","{x:1244,y:692,t:1511284365448};","{x:1246,y:696,t:1511284365465};","{x:1247,y:697,t:1511284365482};","{x:1247,y:696,t:1511284365569};","{x:1245,y:691,t:1511284365583};","{x:1239,y:683,t:1511284365599};","{x:1229,y:670,t:1511284365616};","{x:1211,y:647,t:1511284365633};","{x:1203,y:639,t:1511284365649};","{x:1198,y:628,t:1511284365665};","{x:1193,y:615,t:1511284365683};","{x:1192,y:605,t:1511284365699};","{x:1189,y:597,t:1511284365716};","{x:1184,y:588,t:1511284365733};","{x:1183,y:583,t:1511284365749};","{x:1182,y:577,t:1511284365766};","{x:1180,y:573,t:1511284365783};","{x:1178,y:570,t:1511284365799};","{x:1178,y:569,t:1511284365816};","{x:1176,y:566,t:1511284365839};","{x:1175,y:565,t:1511284365849};","{x:1174,y:563,t:1511284365865};","{x:1174,y:562,t:1511284365882};","{x:1172,y:561,t:1511284365899};","{x:1171,y:559,t:1511284365917};","{x:1170,y:558,t:1511284365932};","{x:1169,y:558,t:1511284365949};","{x:1168,y:556,t:1511284365965};","{x:1167,y:556,t:1511284365982};","{x:1166,y:556,t:1511284366304};","{x:1164,y:556,t:1511284366316};","{x:1159,y:565,t:1511284366332};","{x:1150,y:577,t:1511284366349};","{x:1135,y:593,t:1511284366366};","{x:1114,y:609,t:1511284366382};","{x:1075,y:627,t:1511284366403};","{x:965,y:667,t:1511284366417};","{x:882,y:689,t:1511284366432};","{x:805,y:706,t:1511284366449};","{x:735,y:709,t:1511284366466};","{x:668,y:709,t:1511284366482};","{x:614,y:702,t:1511284366499};","{x:578,y:697,t:1511284366516};","{x:553,y:696,t:1511284366532};","{x:532,y:696,t:1511284366549};","{x:512,y:695,t:1511284366566};","{x:497,y:692,t:1511284366582};","{x:485,y:690,t:1511284366599};","{x:468,y:686,t:1511284366616};","{x:461,y:683,t:1511284366632};","{x:459,y:682,t:1511284366649};","{x:457,y:681,t:1511284366672};","{x:456,y:679,t:1511284366682};","{x:455,y:677,t:1511284366699};","{x:455,y:673,t:1511284366716};","{x:454,y:665,t:1511284366732};","{x:452,y:658,t:1511284366749};","{x:451,y:652,t:1511284366766};","{x:451,y:646,t:1511284366783};","{x:448,y:639,t:1511284366799};","{x:444,y:631,t:1511284366817};","{x:443,y:630,t:1511284366833};","{x:440,y:627,t:1511284366849};","{x:434,y:626,t:1511284366866};","{x:424,y:625,t:1511284366882};","{x:410,y:625,t:1511284366899};","{x:399,y:624,t:1511284366917};","{x:384,y:623,t:1511284366932};","{x:369,y:623,t:1511284366950};","{x:355,y:623,t:1511284366967};","{x:348,y:623,t:1511284366982};","{x:342,y:623,t:1511284367000};","{x:333,y:623,t:1511284367017};","{x:328,y:624,t:1511284367033};","{x:323,y:624,t:1511284367050};","{x:317,y:624,t:1511284367066};","{x:312,y:624,t:1511284367083};","{x:306,y:624,t:1511284367100};","{x:301,y:624,t:1511284367116};","{x:295,y:624,t:1511284367133};","{x:288,y:624,t:1511284367150};","{x:281,y:624,t:1511284367167};","{x:275,y:624,t:1511284367183};","{x:270,y:624,t:1511284367200};","{x:259,y:624,t:1511284367217};","{x:256,y:624,t:1511284367233};","{x:255,y:624,t:1511284367250};","{x:258,y:624,t:1511284367305};","{x:259,y:624,t:1511284367316};","{x:266,y:623,t:1511284367333};","{x:275,y:621,t:1511284367350};","{x:283,y:621,t:1511284367366};","{x:290,y:621,t:1511284367383};","{x:301,y:621,t:1511284367399};","{x:313,y:620,t:1511284367417};","{x:319,y:620,t:1511284367433};","{x:327,y:620,t:1511284367450};","{x:334,y:620,t:1511284367468};","{x:341,y:622,t:1511284367483};","{x:347,y:624,t:1511284367499};","{x:354,y:625,t:1511284367517};","{x:362,y:626,t:1511284367534};","{x:371,y:628,t:1511284367549};","{x:381,y:629,t:1511284367567};","{x:388,y:630,t:1511284367583};","{x:394,y:631,t:1511284367599};","{x:401,y:635,t:1511284367617};","{x:406,y:637,t:1511284367633};","{x:407,y:638,t:1511284367650};","{x:408,y:638,t:1511284367667};","{x:408,y:639,t:1511284367688};","{x:408,y:640,t:1511284367712};","{x:408,y:641,t:1511284367720};","{x:407,y:643,t:1511284367736};","{x:406,y:643,t:1511284367760};","{x:404,y:643,t:1511284367768};","{x:403,y:643,t:1511284367784};","{x:401,y:642,t:1511284367800};","{x:401,y:640,t:1511284367817};","{x:401,y:638,t:1511284367833};","{x:404,y:636,t:1511284367850};","{x:407,y:635,t:1511284367868};","{x:412,y:634,t:1511284367884};","{x:415,y:632,t:1511284367900};","{x:422,y:632,t:1511284367917};","{x:429,y:629,t:1511284367933};","{x:435,y:627,t:1511284367950};","{x:439,y:626,t:1511284367967};","{x:443,y:624,t:1511284367984};","{x:445,y:624,t:1511284368000};","{x:446,y:624,t:1511284368017};","{x:448,y:624,t:1511284368034};","{x:452,y:622,t:1511284368050};","{x:454,y:621,t:1511284368068};","{x:458,y:620,t:1511284368084};","{x:459,y:620,t:1511284368100};","{x:458,y:620,t:1511284368185};","{x:451,y:620,t:1511284368201};","{x:440,y:620,t:1511284368217};","{x:426,y:618,t:1511284368235};","{x:409,y:613,t:1511284368251};","{x:394,y:609,t:1511284368268};","{x:379,y:605,t:1511284368284};","{x:368,y:600,t:1511284368300};","{x:360,y:596,t:1511284368317};","{x:356,y:593,t:1511284368334};","{x:353,y:592,t:1511284368350};","{x:351,y:591,t:1511284368367};","{x:349,y:590,t:1511284368384};","{x:347,y:589,t:1511284368400};","{x:344,y:589,t:1511284368417};","{x:341,y:589,t:1511284368434};","{x:336,y:589,t:1511284368451};","{x:332,y:589,t:1511284368467};","{x:327,y:590,t:1511284368484};","{x:326,y:590,t:1511284368501};","{x:325,y:591,t:1511284368517};","{x:322,y:593,t:1511284368534};","{x:322,y:594,t:1511284368551};","{x:320,y:595,t:1511284368567};","{x:317,y:597,t:1511284368584};","{x:316,y:598,t:1511284368633};","{x:316,y:599,t:1511284368675};","{x:315,y:599,t:1511284368684};","{x:315,y:600,t:1511284368701};","{x:315,y:602,t:1511284369128};","{x:315,y:603,t:1511284369144};","{x:315,y:604,t:1511284369152};","{x:315,y:605,t:1511284369176};","{x:315,y:606,t:1511284369201};","{x:315,y:608,t:1511284369219};","{x:316,y:613,t:1511284369236};","{x:320,y:618,t:1511284369251};","{x:321,y:620,t:1511284369268};","{x:323,y:621,t:1511284369285};","{x:324,y:621,t:1511284369328};","{x:326,y:623,t:1511284369336};","{x:328,y:624,t:1511284369351};","{x:343,y:635,t:1511284369368};","{x:359,y:646,t:1511284369385};","{x:373,y:656,t:1511284369401};","{x:385,y:667,t:1511284369418};","{x:396,y:676,t:1511284369435};","{x:404,y:681,t:1511284369451};","{x:408,y:684,t:1511284369468};","{x:413,y:688,t:1511284369485};","{x:417,y:691,t:1511284369501};","{x:418,y:693,t:1511284369518};","{x:419,y:694,t:1511284369535};","{x:421,y:695,t:1511284369585};","{x:423,y:698,t:1511284369602};","{x:424,y:700,t:1511284369618};","{x:425,y:702,t:1511284369635};","{x:425,y:703,t:1511284369673};","{x:425,y:704,t:1511284370289};","{x:428,y:706,t:1511284370302};","{x:438,y:712,t:1511284370319};","{x:448,y:719,t:1511284370335};","{x:460,y:729,t:1511284370352};","{x:465,y:733,t:1511284370369};","{x:476,y:738,t:1511284370385};","{x:499,y:746,t:1511284370402};","{x:523,y:752,t:1511284370419};","{x:542,y:753,t:1511284370435};","{x:553,y:753,t:1511284370452};","{x:561,y:753,t:1511284370469};","{x:567,y:753,t:1511284370486};","{x:571,y:753,t:1511284370502};","{x:577,y:753,t:1511284370519};","{x:582,y:753,t:1511284370536};","{x:586,y:753,t:1511284370552};","{x:587,y:754,t:1511284370569};","{x:588,y:754,t:1511284370586};"],"block":"triangular_scaffolded","hovered":"-3-H -H -O ","clicked":[["answer","clicked"],["X ","false"],["C ","false"],["O ","false"],["I ","false"],["J ","false"],["A ","false"],["H ","false"],["F ","false"],["K ","false"],["D ","false"],["U ","false"],["E ","false"],["G ","false"],["B ","false"],["Z ","false"]],"answer":["H"],"orth_correct":0,"correct":1,"axis":"full","impasse":1,"explicit":3,"q":4,"question":"endtime","scenario":"acme","condition":"311","session":"delta","graph":"triangular","experiment":"2YP3","subject":"061RN","internal_node_id":"0.0-5.0-3.0","time_elapsed":378526,"trial_index":8,"trial_type":"html","url":"../views/src/external/stimulus.html","rt":9963},{"mouseLog":["{x:1911,y:1911,t:0};","{x:588,y:755,t:1511284372177};","{x:588,y:756,t:1511284372187};","{x:588,y:760,t:1511284372203};","{x:588,y:765,t:1511284372220};","{x:588,y:771,t:1511284372237};","{x:589,y:780,t:1511284372253};","{x:590,y:793,t:1511284372270};","{x:590,y:809,t:1511284372287};","{x:590,y:827,t:1511284372303};","{x:590,y:851,t:1511284372320};","{x:590,y:860,t:1511284372337};","{x:591,y:873,t:1511284372354};","{x:591,y:891,t:1511284372370};","{x:591,y:917,t:1511284372387};","{x:591,y:946,t:1511284372404};","{x:591,y:975,t:1511284372420};","{x:591,y:998,t:1511284372437};","{x:591,y:1020,t:1511284372454};","{x:591,y:1041,t:1511284372470};","{x:591,y:1063,t:1511284372487};","{x:591,y:1065,t:1511284372504};","{x:591,y:1066,t:1511284373744};","{x:591,y:1068,t:1511284373880};","{x:591,y:1069,t:1511284373888};","{x:589,y:1072,t:1511284373905};","{x:587,y:1074,t:1511284373921};","{x:584,y:1077,t:1511284373938};","{x:583,y:1078,t:1511284373955};","{x:583,y:1079,t:1511284374008};","{x:583,y:1080,t:1511284374021};","{x:582,y:1082,t:1511284374038};","{x:581,y:1083,t:1511284374055};","{x:580,y:1084,t:1511284374072};","{x:580,y:1085,t:1511284374088};","{x:579,y:1085,t:1511284374537};","{x:578,y:1086,t:1511284374544};","{x:577,y:1086,t:1511284374568};","{x:577,y:1087,t:1511284374633};","{x:576,y:1088,t:1511284374664};","{x:576,y:1087,t:1511284375258};","{x:590,y:1069,t:1511284375273};","{x:627,y:1027,t:1511284375290};","{x:667,y:978,t:1511284375307};","{x:703,y:934,t:1511284375323};","{x:721,y:909,t:1511284375340};","{x:736,y:888,t:1511284375357};","{x:748,y:872,t:1511284375374};","{x:760,y:858,t:1511284375390};","{x:770,y:848,t:1511284375407};","{x:780,y:840,t:1511284375424};","{x:791,y:831,t:1511284375440};","{x:798,y:824,t:1511284375457};","{x:802,y:822,t:1511284375474};","{x:806,y:821,t:1511284375490};","{x:809,y:821,t:1511284375507};","{x:810,y:821,t:1511284375524};","{x:811,y:821,t:1511284375545};","{x:812,y:821,t:1511284375618};","{x:812,y:822,t:1511284375642};","{x:812,y:823,t:1511284375657};","{x:811,y:824,t:1511284375674};","{x:811,y:825,t:1511284375697};","{x:810,y:826,t:1511284375721};","{x:808,y:827,t:1511284375753};","{x:808,y:828,t:1511284375769};","{x:807,y:828,t:1511284375777};","{x:806,y:828,t:1511284375792};","{x:804,y:829,t:1511284375808};","{x:803,y:829,t:1511284375866};","{x:802,y:828,t:1511284375875};","{x:800,y:827,t:1511284375892};","{x:798,y:826,t:1511284375908};","{x:796,y:824,t:1511284375925};","{x:796,y:822,t:1511284375942};","{x:793,y:818,t:1511284375958};","{x:793,y:817,t:1511284375975};","{x:788,y:811,t:1511284375992};","{x:785,y:807,t:1511284376008};","{x:781,y:804,t:1511284376025};","{x:769,y:797,t:1511284376041};","{x:760,y:795,t:1511284376058};","{x:747,y:792,t:1511284376075};","{x:742,y:792,t:1511284376091};","{x:738,y:792,t:1511284376108};","{x:735,y:792,t:1511284376124};","{x:732,y:792,t:1511284376141};","{x:731,y:792,t:1511284376158};","{x:730,y:793,t:1511284376174};","{x:729,y:793,t:1511284376313};","{x:726,y:793,t:1511284376745};","{x:726,y:795,t:1511284376761};","{x:725,y:796,t:1511284376777};","{x:724,y:797,t:1511284377793};","{x:724,y:798,t:1511284379545};","{x:724,y:799,t:1511284380033};","{x:726,y:800,t:1511284380044};","{x:733,y:806,t:1511284380061};","{x:744,y:815,t:1511284380078};","{x:760,y:826,t:1511284380095};","{x:784,y:842,t:1511284380111};","{x:810,y:861,t:1511284380128};","{x:848,y:889,t:1511284380145};","{x:870,y:905,t:1511284380161};","{x:891,y:924,t:1511284380178};","{x:906,y:942,t:1511284380195};","{x:920,y:960,t:1511284380212};","{x:932,y:980,t:1511284380228};","{x:942,y:996,t:1511284380245};","{x:951,y:1012,t:1511284380262};","{x:959,y:1023,t:1511284380278};","{x:965,y:1029,t:1511284380295};","{x:967,y:1032,t:1511284380312};","{x:971,y:1033,t:1511284380328};","{x:976,y:1033,t:1511284380345};","{x:979,y:1033,t:1511284380361};","{x:980,y:1033,t:1511284380377};","{x:982,y:1033,t:1511284380394};","{x:984,y:1033,t:1511284380411};","{x:989,y:1030,t:1511284380427};","{x:992,y:1027,t:1511284380444};","{x:997,y:1022,t:1511284380461};","{x:1005,y:1012,t:1511284380477};","{x:1013,y:1000,t:1511284380494};","{x:1018,y:992,t:1511284380511};","{x:1025,y:985,t:1511284380527};","{x:1030,y:980,t:1511284380544};","{x:1034,y:977,t:1511284380562};","{x:1035,y:975,t:1511284380577};","{x:1037,y:972,t:1511284380594};","{x:1037,y:970,t:1511284380611};","{x:1039,y:966,t:1511284380628};","{x:1040,y:963,t:1511284380645};","{x:1043,y:959,t:1511284380662};","{x:1044,y:957,t:1511284380678};","{x:1044,y:956,t:1511284380694};","{x:1044,y:957,t:1511284380801};","{x:1044,y:959,t:1511284380812};","{x:1044,y:964,t:1511284380829};","{x:1042,y:968,t:1511284380845};","{x:1041,y:973,t:1511284380862};","{x:1039,y:977,t:1511284380879};","{x:1037,y:980,t:1511284380895};","{x:1035,y:982,t:1511284380912};","{x:1034,y:984,t:1511284380929};","{x:1035,y:984,t:1511284381265};","{x:1037,y:983,t:1511284381279};","{x:1043,y:981,t:1511284381296};","{x:1051,y:978,t:1511284381312};","{x:1069,y:972,t:1511284381329};","{x:1082,y:968,t:1511284381345};","{x:1095,y:966,t:1511284381362};","{x:1106,y:963,t:1511284381379};","{x:1119,y:962,t:1511284381396};","{x:1127,y:961,t:1511284381412};","{x:1134,y:959,t:1511284381429};","{x:1139,y:959,t:1511284381446};","{x:1142,y:959,t:1511284381462};","{x:1144,y:959,t:1511284381479};","{x:1146,y:959,t:1511284381496};","{x:1150,y:959,t:1511284381513};","{x:1153,y:962,t:1511284381529};","{x:1157,y:963,t:1511284381546};","{x:1160,y:965,t:1511284381563};","{x:1163,y:967,t:1511284381579};","{x:1165,y:969,t:1511284381596};","{x:1166,y:971,t:1511284381613};","{x:1166,y:975,t:1511284381629};","{x:1166,y:978,t:1511284381646};","{x:1166,y:980,t:1511284381663};","{x:1166,y:982,t:1511284381679};","{x:1166,y:983,t:1511284381696};","{x:1166,y:984,t:1511284381713};","{x:1167,y:984,t:1511284381801};","{x:1168,y:983,t:1511284381817};","{x:1169,y:981,t:1511284381829};","{x:1170,y:978,t:1511284381846};","{x:1172,y:974,t:1511284381863};","{x:1173,y:972,t:1511284381879};","{x:1173,y:968,t:1511284381896};","{x:1176,y:963,t:1511284381913};","{x:1176,y:958,t:1511284381929};","{x:1177,y:954,t:1511284381945};","{x:1178,y:952,t:1511284381962};","{x:1178,y:950,t:1511284381979};","{x:1178,y:948,t:1511284381995};","{x:1178,y:946,t:1511284382012};","{x:1175,y:940,t:1511284382029};","{x:1168,y:932,t:1511284382045};","{x:1160,y:925,t:1511284382062};","{x:1153,y:916,t:1511284382079};","{x:1145,y:910,t:1511284382095};","{x:1133,y:900,t:1511284382112};","{x:1122,y:891,t:1511284382129};","{x:1112,y:883,t:1511284382145};","{x:1105,y:875,t:1511284382162};","{x:1099,y:870,t:1511284382179};","{x:1097,y:866,t:1511284382195};","{x:1095,y:863,t:1511284382212};","{x:1093,y:857,t:1511284382229};","{x:1092,y:854,t:1511284382245};","{x:1092,y:849,t:1511284382262};","{x:1092,y:843,t:1511284382279};","{x:1092,y:836,t:1511284382296};","{x:1098,y:820,t:1511284382313};","{x:1104,y:809,t:1511284382329};","{x:1112,y:800,t:1511284382346};","{x:1115,y:791,t:1511284382362};","{x:1119,y:783,t:1511284382379};","{x:1121,y:775,t:1511284382396};","{x:1123,y:766,t:1511284382412};","{x:1127,y:755,t:1511284382429};","{x:1129,y:747,t:1511284382447};","{x:1131,y:741,t:1511284382463};","{x:1131,y:734,t:1511284382479};","{x:1131,y:730,t:1511284382497};","{x:1127,y:717,t:1511284382513};","{x:1124,y:699,t:1511284382529};","{x:1122,y:687,t:1511284382547};","{x:1119,y:677,t:1511284382563};","{x:1117,y:671,t:1511284382580};","{x:1114,y:661,t:1511284382597};","{x:1112,y:654,t:1511284382613};","{x:1111,y:646,t:1511284382630};","{x:1111,y:638,t:1511284382647};","{x:1110,y:629,t:1511284382663};","{x:1108,y:620,t:1511284382680};","{x:1106,y:606,t:1511284382697};","{x:1106,y:598,t:1511284382713};","{x:1106,y:585,t:1511284382730};","{x:1106,y:580,t:1511284382747};","{x:1103,y:572,t:1511284382763};","{x:1100,y:567,t:1511284382780};","{x:1099,y:564,t:1511284382797};","{x:1096,y:555,t:1511284382814};","{x:1096,y:550,t:1511284382830};","{x:1096,y:545,t:1511284382847};","{x:1096,y:541,t:1511284382864};","{x:1096,y:537,t:1511284382880};","{x:1095,y:534,t:1511284382896};","{x:1093,y:530,t:1511284382913};","{x:1093,y:529,t:1511284382930};","{x:1093,y:525,t:1511284382947};","{x:1093,y:523,t:1511284382964};","{x:1093,y:520,t:1511284382980};","{x:1093,y:519,t:1511284382997};","{x:1093,y:518,t:1511284383014};","{x:1092,y:516,t:1511284383030};","{x:1091,y:516,t:1511284383057};","{x:1089,y:516,t:1511284383073};","{x:1088,y:516,t:1511284383081};","{x:1086,y:516,t:1511284383097};","{x:1085,y:515,t:1511284383114};","{x:1084,y:514,t:1511284383130};","{x:1082,y:513,t:1511284383147};","{x:1081,y:513,t:1511284383164};","{x:1079,y:513,t:1511284383180};","{x:1078,y:513,t:1511284383197};","{x:1076,y:513,t:1511284383214};","{x:1075,y:513,t:1511284383230};","{x:1074,y:512,t:1511284383247};","{x:1074,y:511,t:1511284383264};","{x:1073,y:508,t:1511284383280};","{x:1072,y:504,t:1511284383297};","{x:1072,y:503,t:1511284383529};","{x:1072,y:502,t:1511284383537};","{x:1072,y:501,t:1511284383553};","{x:1072,y:500,t:1511284383584};","{x:1073,y:499,t:1511284383613};","{x:1073,y:498,t:1511284383630};","{x:1073,y:497,t:1511284383647};","{x:1073,y:496,t:1511284386937};","{x:1064,y:496,t:1511284386957};","{x:1049,y:498,t:1511284386966};","{x:1009,y:510,t:1511284386982};","{x:986,y:523,t:1511284386999};","{x:952,y:539,t:1511284387016};","{x:928,y:550,t:1511284387033};","{x:895,y:564,t:1511284387049};","{x:863,y:576,t:1511284387066};","{x:832,y:585,t:1511284387083};","{x:801,y:594,t:1511284387099};","{x:773,y:597,t:1511284387116};","{x:744,y:597,t:1511284387133};","{x:717,y:597,t:1511284387149};","{x:691,y:599,t:1511284387166};","{x:668,y:601,t:1511284387183};","{x:653,y:603,t:1511284387199};","{x:633,y:605,t:1511284387216};","{x:627,y:605,t:1511284387233};","{x:625,y:605,t:1511284387249};","{x:625,y:607,t:1511284387377};","{x:625,y:608,t:1511284387384};","{x:625,y:609,t:1511284387400};","{x:618,y:613,t:1511284387416};","{x:613,y:617,t:1511284387433};","{x:609,y:619,t:1511284387450};","{x:605,y:620,t:1511284387466};","{x:603,y:621,t:1511284387483};","{x:600,y:621,t:1511284387500};","{x:598,y:622,t:1511284387516};","{x:593,y:622,t:1511284387533};","{x:588,y:622,t:1511284387551};","{x:578,y:622,t:1511284387567};","{x:563,y:622,t:1511284387583};","{x:537,y:622,t:1511284387601};","{x:518,y:623,t:1511284387616};","{x:495,y:624,t:1511284387634};","{x:467,y:628,t:1511284387651};","{x:435,y:630,t:1511284387666};","{x:387,y:638,t:1511284387683};","{x:338,y:642,t:1511284387700};","{x:299,y:642,t:1511284387716};","{x:273,y:642,t:1511284387733};","{x:256,y:642,t:1511284387750};","{x:244,y:642,t:1511284387766};","{x:240,y:642,t:1511284387783};","{x:240,y:641,t:1511284387800};","{x:238,y:640,t:1511284387817};","{x:237,y:640,t:1511284387840};","{x:234,y:640,t:1511284387856};","{x:233,y:640,t:1511284387880};","{x:235,y:641,t:1511284387953};","{x:238,y:643,t:1511284387967};","{x:243,y:644,t:1511284387983};","{x:248,y:646,t:1511284388000};","{x:256,y:646,t:1511284388017};","{x:262,y:646,t:1511284388033};","{x:267,y:646,t:1511284388050};","{x:276,y:645,t:1511284388067};","{x:286,y:642,t:1511284388083};","{x:295,y:641,t:1511284388100};","{x:301,y:640,t:1511284388117};","{x:304,y:640,t:1511284388133};","{x:305,y:639,t:1511284388150};","{x:307,y:638,t:1511284388167};","{x:309,y:637,t:1511284388184};","{x:309,y:636,t:1511284388208};","{x:309,y:634,t:1511284388232};","{x:309,y:633,t:1511284388241};","{x:308,y:633,t:1511284388250};","{x:308,y:632,t:1511284388296};","{x:308,y:631,t:1511284388304};","{x:309,y:631,t:1511284388317};","{x:316,y:631,t:1511284388334};","{x:327,y:631,t:1511284388350};","{x:343,y:631,t:1511284388367};","{x:374,y:634,t:1511284388384};","{x:396,y:636,t:1511284388400};","{x:420,y:640,t:1511284388417};","{x:444,y:640,t:1511284388434};","{x:465,y:640,t:1511284388451};","{x:480,y:640,t:1511284388467};","{x:492,y:639,t:1511284388484};","{x:500,y:637,t:1511284388500};","{x:508,y:632,t:1511284388518};","{x:512,y:630,t:1511284388534};","{x:516,y:628,t:1511284388551};","{x:517,y:626,t:1511284388567};","{x:518,y:626,t:1511284388593};","{x:518,y:625,t:1511284388600};","{x:518,y:623,t:1511284388617};","{x:518,y:620,t:1511284388634};","{x:518,y:618,t:1511284388651};","{x:516,y:616,t:1511284388667};","{x:513,y:615,t:1511284388684};","{x:512,y:614,t:1511284388700};","{x:509,y:612,t:1511284388717};","{x:507,y:610,t:1511284388735};","{x:506,y:608,t:1511284388751};","{x:506,y:607,t:1511284388767};","{x:503,y:605,t:1511284388785};","{x:503,y:604,t:1511284388801};","{x:499,y:603,t:1511284388817};","{x:498,y:603,t:1511284388834};","{x:497,y:603,t:1511284388852};","{x:497,y:602,t:1511284388945};","{x:496,y:601,t:1511284388960};","{x:496,y:600,t:1511284388976};","{x:496,y:599,t:1511284388985};","{x:496,y:598,t:1511284389008};","{x:496,y:597,t:1511284389025};","{x:496,y:596,t:1511284389048};","{x:496,y:594,t:1511284389089};","{x:496,y:597,t:1511284389392};","{x:496,y:603,t:1511284389401};","{x:496,y:618,t:1511284389418};","{x:496,y:629,t:1511284389434};","{x:496,y:643,t:1511284389451};","{x:496,y:651,t:1511284389467};","{x:493,y:660,t:1511284389484};","{x:492,y:665,t:1511284389501};","{x:491,y:669,t:1511284389518};","{x:490,y:670,t:1511284389534};","{x:489,y:672,t:1511284389551};","{x:486,y:675,t:1511284389568};","{x:485,y:676,t:1511284389584};","{x:482,y:678,t:1511284389601};","{x:477,y:679,t:1511284389617};","{x:471,y:682,t:1511284389634};","{x:467,y:683,t:1511284389651};","{x:461,y:685,t:1511284389667};","{x:460,y:685,t:1511284389684};","{x:459,y:686,t:1511284389701};","{x:457,y:687,t:1511284389717};","{x:455,y:688,t:1511284389734};","{x:450,y:689,t:1511284389751};","{x:447,y:692,t:1511284389767};","{x:441,y:695,t:1511284389784};","{x:438,y:698,t:1511284389801};","{x:435,y:699,t:1511284389817};","{x:432,y:701,t:1511284389834};","{x:431,y:703,t:1511284389850};","{x:428,y:706,t:1511284389868};","{x:426,y:708,t:1511284389884};","{x:423,y:711,t:1511284389902};","{x:422,y:713,t:1511284389918};","{x:420,y:715,t:1511284389935};","{x:419,y:715,t:1511284389952};","{x:417,y:716,t:1511284389969};","{x:416,y:717,t:1511284389985};","{x:415,y:717,t:1511284390002};","{x:414,y:718,t:1511284390019};","{x:416,y:718,t:1511284390392};","{x:422,y:719,t:1511284390402};","{x:445,y:720,t:1511284390418};","{x:491,y:723,t:1511284390435};","{x:557,y:730,t:1511284390452};","{x:606,y:736,t:1511284390468};","{x:612,y:736,t:1511284390485};"],"block":"triangular_scaffolded","hovered":"-11 AM-11 AM-11 AM-01 PM-I ","clicked":[["answer","clicked"],["X ","false"],["C ","false"],["O ","false"],["I ","false"],["J ","false"],["A ","false"],["H ","false"],["F ","false"],["K ","false"],["D ","false"],["U ","false"],["E ","false"],["G ","false"],["B ","false"],["Z ","false"]],"answer":["O"],"orth_correct":0,"correct":1,"axis":"full","impasse":1,"explicit":3,"q":5,"question":"midpoint","scenario":"acme","condition":"311","session":"delta","graph":"triangular","experiment":"2YP3","subject":"061RN","internal_node_id":"0.0-5.0-4.0","time_elapsed":398814,"trial_index":9,"trial_type":"html","url":"../views/src/external/stimulus.html","rt":19023},{"mouseLog":["{x:1911,y:1911,t:0};","{x:618,y:737,t:1511284392833};","{x:628,y:737,t:1511284392844};","{x:636,y:739,t:1511284392855};","{x:657,y:742,t:1511284392871};","{x:680,y:745,t:1511284392888};","{x:700,y:748,t:1511284392904};","{x:706,y:749,t:1511284392921};","{x:714,y:752,t:1511284392938};","{x:726,y:757,t:1511284392955};","{x:743,y:764,t:1511284392971};","{x:765,y:777,t:1511284392988};","{x:787,y:790,t:1511284393005};","{x:808,y:802,t:1511284393022};","{x:833,y:819,t:1511284393038};","{x:862,y:843,t:1511284393055};","{x:896,y:876,t:1511284393072};","{x:927,y:908,t:1511284393088};","{x:967,y:953,t:1511284393105};","{x:990,y:981,t:1511284393122};","{x:1009,y:1007,t:1511284393138};","{x:1028,y:1035,t:1511284393155};","{x:1046,y:1059,t:1511284393172};","{x:1061,y:1076,t:1511284393188};","{x:1072,y:1085,t:1511284393205};","{x:1083,y:1090,t:1511284393222};","{x:1090,y:1090,t:1511284393238};","{x:1096,y:1090,t:1511284393255};","{x:1112,y:1080,t:1511284393273};","{x:1116,y:1078,t:1511284393288};","{x:1132,y:1070,t:1511284393305};","{x:1139,y:1063,t:1511284393322};","{x:1150,y:1055,t:1511284393338};","{x:1156,y:1047,t:1511284393356};","{x:1159,y:1041,t:1511284393373};","{x:1163,y:1036,t:1511284393389};","{x:1164,y:1033,t:1511284393405};","{x:1164,y:1030,t:1511284393422};","{x:1164,y:1028,t:1511284393438};","{x:1164,y:1026,t:1511284393455};","{x:1163,y:1024,t:1511284393473};","{x:1163,y:1023,t:1511284393489};","{x:1161,y:1022,t:1511284393505};","{x:1157,y:1019,t:1511284393522};","{x:1150,y:1015,t:1511284393539};","{x:1145,y:1011,t:1511284393556};","{x:1137,y:1002,t:1511284393572};","{x:1126,y:991,t:1511284393590};","{x:1117,y:981,t:1511284393606};","{x:1112,y:975,t:1511284393623};","{x:1110,y:972,t:1511284393640};","{x:1110,y:970,t:1511284393656};","{x:1110,y:968,t:1511284393673};","{x:1110,y:967,t:1511284393689};","{x:1110,y:963,t:1511284393706};","{x:1109,y:961,t:1511284393723};","{x:1109,y:960,t:1511284393740};","{x:1108,y:957,t:1511284393756};","{x:1108,y:954,t:1511284393773};","{x:1107,y:952,t:1511284393790};","{x:1106,y:951,t:1511284393808};","{x:1105,y:950,t:1511284393822};","{x:1100,y:945,t:1511284393839};","{x:1089,y:935,t:1511284393855};","{x:1078,y:925,t:1511284393872};","{x:1062,y:906,t:1511284393889};","{x:1054,y:895,t:1511284393905};","{x:1049,y:886,t:1511284393922};","{x:1047,y:877,t:1511284393939};","{x:1044,y:868,t:1511284393956};","{x:1043,y:859,t:1511284393972};","{x:1042,y:848,t:1511284393989};","{x:1038,y:841,t:1511284394006};","{x:1038,y:835,t:1511284394022};","{x:1036,y:829,t:1511284394039};","{x:1035,y:821,t:1511284394056};","{x:1035,y:814,t:1511284394073};","{x:1031,y:807,t:1511284394089};","{x:1030,y:804,t:1511284394107};","{x:1028,y:800,t:1511284394123};","{x:1024,y:798,t:1511284394140};","{x:1020,y:797,t:1511284394156};","{x:1010,y:795,t:1511284394173};","{x:1004,y:794,t:1511284394189};","{x:999,y:793,t:1511284394206};","{x:997,y:791,t:1511284394223};","{x:996,y:791,t:1511284394241};","{x:995,y:790,t:1511284394257};","{x:994,y:790,t:1511284394281};","{x:993,y:790,t:1511284394321};","{x:992,y:789,t:1511284394329};","{x:992,y:788,t:1511284394345};","{x:991,y:787,t:1511284394368};","{x:990,y:786,t:1511284394384};","{x:990,y:785,t:1511284394392};","{x:990,y:784,t:1511284394408};","{x:990,y:783,t:1511284394424};","{x:989,y:782,t:1511284394439};","{x:988,y:781,t:1511284394456};","{x:988,y:780,t:1511284394513};","{x:988,y:779,t:1511284394537};","{x:987,y:779,t:1511284394586};","{x:987,y:778,t:1511284394609};","{x:987,y:777,t:1511284394624};","{x:987,y:776,t:1511284394640};","{x:987,y:774,t:1511284394657};","{x:987,y:773,t:1511284394705};","{x:987,y:772,t:1511284394729};","{x:987,y:771,t:1511284394752};","{x:987,y:770,t:1511284394784};","{x:987,y:768,t:1511284395027};","{x:988,y:765,t:1511284395056};","{x:988,y:763,t:1511284395073};","{x:988,y:761,t:1511284395090};","{x:988,y:760,t:1511284395106};","{x:988,y:758,t:1511284395123};","{x:989,y:757,t:1511284395141};","{x:989,y:756,t:1511284395314};","{x:991,y:755,t:1511284395324};","{x:992,y:752,t:1511284395341};","{x:993,y:749,t:1511284395358};","{x:995,y:747,t:1511284395374};","{x:998,y:744,t:1511284395391};","{x:1003,y:741,t:1511284395408};","{x:1010,y:735,t:1511284395424};","{x:1027,y:720,t:1511284395441};","{x:1045,y:704,t:1511284395457};","{x:1066,y:687,t:1511284395473};","{x:1081,y:671,t:1511284395491};","{x:1093,y:658,t:1511284395508};","{x:1097,y:642,t:1511284395524};","{x:1101,y:630,t:1511284395541};","{x:1102,y:624,t:1511284395558};","{x:1102,y:622,t:1511284395574};","{x:1102,y:621,t:1511284395593};","{x:1102,y:620,t:1511284395657};","{x:1101,y:620,t:1511284395696};","{x:1098,y:617,t:1511284395707};","{x:1097,y:611,t:1511284395724};","{x:1094,y:603,t:1511284395740};","{x:1092,y:593,t:1511284395757};","{x:1092,y:582,t:1511284395774};","{x:1092,y:569,t:1511284395790};","{x:1092,y:556,t:1511284395807};","{x:1092,y:542,t:1511284395825};","{x:1092,y:536,t:1511284395840};","{x:1090,y:534,t:1511284395857};","{x:1089,y:533,t:1511284395913};","{x:1088,y:533,t:1511284395945};","{x:1087,y:533,t:1511284395961};","{x:1086,y:534,t:1511284395975};","{x:1083,y:542,t:1511284395991};","{x:1083,y:549,t:1511284396008};","{x:1083,y:555,t:1511284396025};","{x:1083,y:558,t:1511284396041};","{x:1083,y:559,t:1511284396065};","{x:1083,y:560,t:1511284396075};","{x:1083,y:561,t:1511284396097};","{x:1085,y:561,t:1511284396108};","{x:1086,y:561,t:1511284396124};","{x:1088,y:561,t:1511284396142};","{x:1089,y:561,t:1511284396157};","{x:1090,y:561,t:1511284396433};","{x:1090,y:563,t:1511284396473};","{x:1091,y:563,t:1511284396481};","{x:1091,y:564,t:1511284396491};","{x:1091,y:566,t:1511284396507};","{x:1091,y:567,t:1511284396524};","{x:1092,y:567,t:1511284396541};","{x:1092,y:569,t:1511284396558};","{x:1092,y:570,t:1511284396575};","{x:1092,y:572,t:1511284396593};","{x:1093,y:572,t:1511284396609};","{x:1093,y:573,t:1511284396714};","{x:1093,y:575,t:1511284396725};","{x:1093,y:577,t:1511284396742};","{x:1093,y:582,t:1511284396759};","{x:1093,y:584,t:1511284396775};","{x:1093,y:585,t:1511284396792};","{x:1093,y:586,t:1511284396913};","{x:1093,y:589,t:1511284396925};","{x:1097,y:601,t:1511284396942};","{x:1107,y:623,t:1511284396959};","{x:1130,y:658,t:1511284396975};","{x:1154,y:705,t:1511284396992};","{x:1197,y:803,t:1511284397009};","{x:1218,y:871,t:1511284397025};","{x:1235,y:929,t:1511284397042};","{x:1253,y:976,t:1511284397059};","{x:1261,y:995,t:1511284397076};","{x:1264,y:1003,t:1511284397092};","{x:1266,y:1003,t:1511284397129};","{x:1267,y:1003,t:1511284397142};","{x:1270,y:1003,t:1511284397159};","{x:1271,y:1003,t:1511284397176};","{x:1269,y:1002,t:1511284397265};","{x:1265,y:1000,t:1511284397276};","{x:1252,y:992,t:1511284397292};","{x:1243,y:987,t:1511284397309};","{x:1238,y:986,t:1511284397326};","{x:1235,y:984,t:1511284397342};","{x:1234,y:983,t:1511284397359};","{x:1232,y:980,t:1511284397376};","{x:1232,y:979,t:1511284397450};","{x:1232,y:978,t:1511284397459};","{x:1232,y:977,t:1511284397475};","{x:1233,y:977,t:1511284397493};","{x:1231,y:977,t:1511284397569};","{x:1228,y:977,t:1511284397577};","{x:1225,y:978,t:1511284397593};","{x:1221,y:978,t:1511284397609};","{x:1211,y:970,t:1511284397627};","{x:1198,y:955,t:1511284397643};","{x:1183,y:933,t:1511284397659};","{x:1167,y:904,t:1511284397676};","{x:1149,y:874,t:1511284397693};","{x:1136,y:844,t:1511284397709};","{x:1124,y:816,t:1511284397726};","{x:1119,y:794,t:1511284397743};","{x:1113,y:774,t:1511284397759};","{x:1109,y:760,t:1511284397776};","{x:1104,y:745,t:1511284397793};","{x:1100,y:736,t:1511284397809};","{x:1096,y:728,t:1511284397827};","{x:1094,y:723,t:1511284397843};","{x:1091,y:720,t:1511284397859};","{x:1088,y:715,t:1511284397876};","{x:1086,y:712,t:1511284397893};","{x:1085,y:710,t:1511284397910};","{x:1085,y:709,t:1511284397926};","{x:1084,y:707,t:1511284397943};","{x:1083,y:706,t:1511284397960};","{x:1083,y:703,t:1511284397976};","{x:1077,y:694,t:1511284397993};","{x:1072,y:687,t:1511284398009};","{x:1069,y:681,t:1511284398027};","{x:1067,y:678,t:1511284398043};","{x:1067,y:676,t:1511284398060};","{x:1067,y:674,t:1511284398076};","{x:1067,y:673,t:1511284398093};","{x:1067,y:670,t:1511284398110};","{x:1067,y:666,t:1511284398126};","{x:1067,y:663,t:1511284398143};","{x:1067,y:660,t:1511284398160};","{x:1067,y:658,t:1511284398176};","{x:1067,y:657,t:1511284398209};","{x:1067,y:656,t:1511284398233};","{x:1067,y:655,t:1511284398243};","{x:1067,y:653,t:1511284398260};","{x:1067,y:648,t:1511284398276};","{x:1066,y:645,t:1511284398293};","{x:1066,y:641,t:1511284398310};","{x:1065,y:635,t:1511284398327};","{x:1064,y:630,t:1511284398343};","{x:1063,y:623,t:1511284398360};","{x:1063,y:614,t:1511284398377};","{x:1063,y:607,t:1511284398393};","{x:1065,y:601,t:1511284398409};","{x:1066,y:594,t:1511284398427};","{x:1069,y:586,t:1511284398443};","{x:1070,y:582,t:1511284398460};","{x:1074,y:575,t:1511284398477};","{x:1074,y:573,t:1511284398493};","{x:1074,y:572,t:1511284398510};","{x:1075,y:571,t:1511284398527};","{x:1076,y:570,t:1511284398543};","{x:1076,y:569,t:1511284398577};","{x:1076,y:567,t:1511284398601};","{x:1079,y:566,t:1511284398609};","{x:1080,y:566,t:1511284398633};","{x:1082,y:566,t:1511284398665};","{x:1084,y:566,t:1511284398681};","{x:1087,y:566,t:1511284398693};","{x:1093,y:566,t:1511284398709};","{x:1095,y:566,t:1511284398727};","{x:1096,y:566,t:1511284398744};","{x:1097,y:566,t:1511284398760};","{x:1096,y:566,t:1511284398921};","{x:1094,y:566,t:1511284398929};","{x:1093,y:566,t:1511284398960};","{x:1090,y:566,t:1511284398977};","{x:1088,y:566,t:1511284398993};","{x:1087,y:566,t:1511284399010};","{x:1086,y:566,t:1511284399026};","{x:1085,y:566,t:1511284399043};","{x:1084,y:566,t:1511284399098};","{x:1083,y:566,t:1511284399353};","{x:1083,y:567,t:1511284399368};","{x:1085,y:564,t:1511284403473};","{x:1091,y:556,t:1511284403497};","{x:1095,y:550,t:1511284403514};","{x:1096,y:546,t:1511284403530};","{x:1098,y:544,t:1511284403547};","{x:1099,y:540,t:1511284403564};","{x:1101,y:538,t:1511284403581};","{x:1104,y:535,t:1511284403597};","{x:1105,y:533,t:1511284403614};","{x:1106,y:531,t:1511284403631};","{x:1107,y:529,t:1511284403647};","{x:1109,y:528,t:1511284403664};","{x:1113,y:525,t:1511284403681};","{x:1113,y:524,t:151128