{"_id":{"$oid":"58b87375eeccad000492c35b"},"data":[{"condition":"3","session":"alfa","experiment":"experiment","subject":"E8DLP","internal_node_id":"0.0-0.0","time_elapsed":138832,"trial_index":0,"trial_type":"single-stim","block":"phone","key_press":13,"stimulus":"img/phone.png","rt":138824},{"condition":"3","session":"alfa","experiment":"experiment","subject":"E8DLP","internal_node_id":"0.0-1.0","time_elapsed":144975,"trial_index":1,"trial_type":"html","block":"consent","url":"../views/src/external/consent.html","rt":4761},{"condition":"3","session":"alfa","experiment":"experiment","subject":"E8DLP","internal_node_id":"0.0-2.0","time_elapsed":182943,"trial_index":2,"trial_type":"survey-text","block":"codes","responses":"{\"Q0\":\"alfa\",\"Q1\":\"3\"}","rt":36954},{"condition":"3","session":"alfa","experiment":"experiment","subject":"E8DLP","internal_node_id":"0.0-3.0","time_elapsed":189241,"trial_index":3,"trial_type":"html","block":"instructions_lab","url":"../views/src/external/instructions_lab.html","rt":5064},{"condition":"3","session":"alfa","experiment":"experiment","subject":"E8DLP","internal_node_id":"0.0-4.0","time_elapsed":208277,"trial_index":4,"trial_type":"single-stim","block":"scenario-one","key_press":13,"stimulus":"img/longmire.png","rt":18033},{"block":"linear_scaffolded","helps":0,"clicked":[["answer","clicked"],["A ","false"],["M ","false"],["D ","false"],["N ","false"],["B ","false"],["F ","false"],["H ","false"],["G ","false"],["O ","false"],["C ","false"],["J ","false"],["I ","false"],["E ","false"],["L ","false"],["K ","false"]],"answer":["D"],"correct":0,"scaffold":"show-static","question":"start","scenario":"longmire","graph":"linear","condition":"3","session":"alfa","experiment":"experiment","subject":"E8DLP","internal_node_id":"0.0-5.0-0.0","time_elapsed":220653,"trial_index":5,"trial_type":"html","url":"../views/src/external/stimulus.html","rt":10826},{"block":"linear_scaffolded","helps":0,"clicked":[["answer","clicked"],["A ","false"],["M ","false"],["D ","false"],["N ","false"],["B ","false"],["F ","false"],["H ","false"],["G ","false"],["O ","false"],["C ","false"],["J ","false"],["I ","false"],["E ","false"],["L ","false"],["K ","false"]],"answer":["H","J","K","L","O"],"correct":0,"scaffold":"show-static","question":"end","scenario":"longmire","graph":"linear","condition":"3","session":"alfa","experiment":"experiment","subject":"E8DLP","internal_node_id":"0.0-5.0-1.0","time_elapsed":254315,"trial_index":6,"trial_type":"html","url":"../views/src/external/stimulus.html","rt":32320},{"block":"linear_scaffolded","helps":0,"clicked":[["answer","clicked"],["A ","false"],["M ","false"],["D ","false"],["N ","false"],["B ","false"],["F ","false"],["H ","false"],["G ","false"],["O ","false"],["C ","false"],["J ","false"],["I ","false"],["E ","false"],["L ","false"],["K ","false"]],"answer":["G","O"],"correct":1,"scaffold":"show-static","question":"duration","scenario":"longmire","graph":"linear","condition":"3","session":"alfa","experiment":"experiment","subject":"E8DLP","internal_node_id":"0.0-5.0-2.0","time_elapsed":269998,"trial_index":7,"trial_type":"html","url":"../views/src/external/stimulus.html","rt":14392},{"block":"linear_scaffolded","helps":0,"clicked":[["answer","clicked"],["A ","false"],["M ","false"],["D ","false"],["N ","false"],["B ","false"],["F ","false"],["H ","false"],["G ","false"],["O ","false"],["C ","false"],["J ","false"],["I ","false"],["E ","false"],["L ","false"],["K ","false"]],"answer":["1"],"correct":1,"scaffold":"show-static","question":"midpoint","scenario":"longmire","graph":"linear","condition":"3","session":"alfa","experiment":"experiment","subject":"E8DLP","internal_node_id":"0.0-5.0-3.0","time_elapsed":288377,"trial_index":8,"trial_type":"html","url":"../views/src/external/stimulus.html","rt":17095},{"block":"linear_scaffolded","helps":0,"clicked":[["answer","clicked"],["A ","false"],["M ","false"],["D ","false"],["N ","false"],["B ","false"],["F ","false"],["H ","false"],["G ","false"],["O ","false"],["C ","false"],["J ","false"],["I ","false"],["E ","false"],["L ","false"],["K ","false"]],"answer":[],"correct":0,"scaffold":"show-static","question":"start+overlap","scenario":"longmire","graph":"linear","condition":"3","session":"alfa","experiment":"experiment","subject":"E8DLP","internal_node_id":"0.0-5.0-4.0","time_elapsed":300280,"trial_index":9,"trial_type":"html","url":"../views/src/external/stimulus.html","rt":10626},{"block":"linear_testing","helps":0,"clicked":[["answer","clicked"],["A ","false"],["M ","false"],["D ","false"],["N ","false"],["B ","false"],["F ","false"],["H ","false"],["G ","false"],["O ","false"],["C ","false"],["J ","false"],["I ","false"],["E ","false"],["L ","false"],["K ","false"]],"answer":["4"],"correct":0,"scaffold":"none","question":"finishes","scenario":"longmire","graph":"linear","condition":"3","session":"alfa","experiment":"experiment","subject":"E8DLP","internal_node_id":"0.0-6.0-6.0","time_elapsed":317781,"trial_index":10,"trial_type":"html","url":"../views/src/external/stimulus.html","rt":16210},{"block":"linear_testing","helps":0,"clicked":[["answer","clicked"],["A ","false"],["M ","false"],["D ","false"],["N ","false"],["B ","false"],["F ","false"],["H ","false"],["G ","false"],["O ","false"],["C ","false"],["J ","false"],["I ","false"],["E ","false"],["L ","false"],["K ","false"]],"answer":[],"correct":0,"scaffold":"none","question":"starts","scenario":"longmire","graph":"linear","condition":"3","session":"alfa","experiment":"experiment","subject":"E8DLP","internal_node_id":"0.0-6.0-5.0","time_elapsed":345551,"trial_index":11,"trial_type":"html","url":"../views/src/external/stimulus.html","rt":26483},{"block":"linear_testing","helps":0,"clicked":[["answer","clicked"],["A ","false"],["M ","false"],["D ","false"],["N ","false"],["B ","false"],["F ","false"],["H ","false"],["G ","false"],["O ","false"],["C ","false"],["J ","false"],["I ","false"],["E ","false"],["L ","false"],["K ","false"]],"answer":["C"],"correct":1,"scaffold":"none","question":"starts+finishes","scenario":"longmire","graph":"linear","condition":"3","session":"alfa","experiment":"experiment","subject":"E8DLP","internal_node_id":"0.0-6.0-9.0","time_elapsed":359171,"trial_index":12,"trial_type":"html","url":"../views/src/external/stimulus.html","rt":12332},{"block":"linear_testing","helps":0,"clicked":[["answer","clicked"],["A ","false"],["M ","false"],["D ","false"],["N ","false"],["B ","false"],["F ","false"],["H ","false"],["G ","false"],["O ","false"],["C ","false"],["J ","false"],["I ","false"],["E ","false"],["L ","false"],["K ","false"]],"answer":["M"],"correct":0,"scaffold":"none","question":"before+overlap","scenario":"longmire","graph":"linear","condition":"3","session":"alfa","experiment":"experiment","subject":"E8DLP","internal_node_id":"0.0-6.0-1.0","time_elapsed":383429,"trial_index":13,"trial_type":"html","url":"../views/src/external/stimulus.html","rt":22972},{"block":"linear_testing","helps":0,"clicked":[["answer","clicked"],["A ","false"],["M ","false"],["D ","false"],["N ","false"],["B ","false"],["F ","false"],["H ","false"],["G ","false"],["O ","false"],["C ","false"],["J ","false"],["I ","false"],["E ","false"],["L ","false"],["K ","false"]],"answer":["C","E","G","J","K","L","O"],"correct":0,"scaffold":"none","question":"start+duration","scenario":"longmire","graph":"linear","condition":"3","session":"alfa","experiment":"experiment","subject":"E8DLP","internal_node_id":"0.0-6.0-0.0","time_elapsed":427757,"trial_index":14,"trial_type":"html","url":"../views/src/external/stimulus.html","rt":43041},{"block":"linear_testing","helps":0,"clicked":[["answer","clicked"],["A ","false"],["M ","false"],["D ","false"],["N ","false"],["B ","false"],["F ","false"],["H ","false"],["G ","false"],["O ","false"],["C ","false"],["J ","false"],["I ","false"],["E ","false"],["L ","false"],["K ","false"]],"answer":["O"],"correct":1,"scaffold":"none","question":"meets","scenario":"longmire","graph":"linear","condition":"3","session":"alfa","experiment":"experiment","subject":"E8DLP","internal_node_id":"0.0-6.0-8.0","time_elapsed":444651,"trial_index":15,"trial_type":"html","url":"../views/src/external/stimulus.html","rt":15620},{"block":"linear_testing","helps":0,"clicked":[["answer","clicked"],["A ","false"],["M ","false"],["D ","false"],["N ","false"],["B ","false"],["F ","false"],["H ","false"],["G ","false"],["O ","false"],["C ","false"],["J ","false"],["I ","false"],["E ","false"],["L ","false"],["K ","false"]],"answer":["J","L","O"],"correct":0,"scaffold":"none","question":"during","scenario":"longmire","graph":"linear","condition":"3","session":"alfa","experiment":"experiment","subject":"E8DLP","internal_node_id":"0.0-6.0-7.0","time_elapsed":474702,"trial_index":16,"trial_type":"html","url":"../views/src/external/stimulus.html","rt":28764},{"block":"linear_testing","helps":0,"clicked":[["answer","clicked"],["A ","false"],["M ","false"],["D ","false"],["N ","false"],["B ","false"],["F ","false"],["H ","false"],["G ","false"],["O ","false"],["C ","false"],["J ","false"],["I ","false"],["E ","false"],["L ","false"],["K ","false"]],"answer":["K","L"],"correct":1,"scaffold":"none","question":"during+overlap","scenario":"longmire","graph":"linear","condition":"3","session":"alfa","experiment":"experiment","subject":"E8DLP","internal_node_id":"0.0-6.0-3.0","time_elapsed":513986,"trial_index":17,"trial_type":"html","url":"../views/src/external/stimulus.html","rt":37963},{"block":"linear_testing","helps":0,"clicked":[["answer","clicked"],["A ","false"],["M ","false"],["D ","false"],["N ","false"],["B ","false"],["F ","false"],["H ","false"],["G ","false"],["O ","false"],["C ","false"],["J ","false"],["I ","false"],["E ","false"],["L ","false"],["K ","false"]],"answer":["M","N"],"correct":0,"scaffold":"none","question":"overlap+overlap","scenario":"longmire","graph":"linear","condition":"3","session":"alfa","experiment":"experiment","subject":"E8DLP","internal_node_id":"0.0-6.0-2.0","time_elapsed":534938,"trial_index":18,"trial_type":"html","url":"../views/src/external/stimulus.html","rt":19672},{"block":"linear_testing","helps":0,"clicked":[["answer","clicked"],["A ","false"],["M ","false"],["D ","false"],["N ","false"],["B ","false"],["F ","false"],["H ","false"],["G ","false"],["O ","false"],["C ","false"],["J ","false"],["I ","false"],["E ","false"],["L ","false"],["K ","false"]],"answer":["O"],"correct":0,"scaffold":"none","question":"contain+duration","scenario":"longmire","graph":"linear","condition":"3","session":"alfa","experiment":"experiment","subject":"E8DLP","internal_node_id":"0.0-6.0-4.0","time_elapsed":554947,"trial_index":19,"trial_type":"html","url":"../views/src/external/stimulus.html","rt":18689},{"condition":"3","session":"alfa","experiment":"experiment","subject":"E8DLP","internal_node_id":"0.0-7.0","time_elapsed":575504,"trial_index":20,"trial_type":"single-stim","block":"scenario-two","key_press":13,"stimulus":"img/axis.png","rt":19552},{"block":"triangular_scaffolded","helps":1,"clicked":[["answer","clicked"],["M ","false"],["B ","false"],["J ","false"],["N ","false"],["D ","false"],["O ","false"],["K ","false"],["C ","false"],["F ","false"],["I ","false"],["H ","false"],["G ","false"],["L ","false"],["E ","false"],["A ","false"]],"answer":["H","O"],"correct":1,"scaffold":"show-static","question":"start","scenario":"axis","graph":"triangular","condition":"3","session":"alfa","experiment":"experiment","subject":"E8DLP","internal_node_id":"0.0-8.0-0.0","time_elapsed":625541,"trial_index":21,"trial_type":"html","url":"../views/src/external/stimulus.html","rt":48737},{"block":"triangular_scaffolded","helps":1,"clicked":[["answer","clicked"],["M ","false"],["B ","false"],["J ","false"],["N ","false"],["D ","false"],["O ","false"],["K ","false"],["C ","false"],["F ","false"],["I ","false"],["H ","false"],["G ","false"],["L ","false"],["E ","false"],["A ","false"]],"answer":["10"],"correct":0,"scaffold":"show-static","question":"end","scenario":"axis","graph":"triangular","condition":"3","session":"alfa","experiment":"experiment","subject":"E8DLP","internal_node_id":"0.0-8.0-1.0","time_elapsed":644639,"trial_index":22,"trial_type":"html","url":"../views/src/external/stimulus.html","rt":17638},{"block":"triangular_scaffolded","helps":0,"clicked":[["answer","clicked"],["M ","false"],["B ","false"],["J ","false"],["N ","false"],["D ","false"],["O ","false"],["K ","false"],["C ","false"],["F ","false"],["I ","false"],["H ","false"],["G ","false"],["L ","false"],["E ","false"],["A ","false"]],"answer":["A","C","E","F","G","H","I","K","L"],"correct":1,"scaffold":"show-static","question":"duration","scenario":"axis","graph":"triangular","condition":"3","session":"alfa","experiment":"experiment","subject":"E8DLP","internal_node_id":"0.0-8.0-2.0","time_elapsed":685814,"trial_index":23,"trial_type":"html","url":"../views/src/external/stimulus.html","rt":39872},{"block":"triangular_scaffolded","helps":0,"clicked":[["answer","clicked"],["M ","false"],["B ","false"],["J ","false"],["N ","false"],["D ","false"],["O ","false"],["K ","false"],["C ","false"],["F ","false"],["I ","false"],["H ","false"],["G ","false"],["L ","false"],["E ","false"],["A ","false"]],"answer":["8"],"correct":1,"scaffold":"show-static","question":"midpoint","scenario":"axis","graph":"triangular","condition":"3","session":"alfa","experiment":"experiment","subject":"E8DLP","internal_node_id":"0.0-8.0-3.0","time_elapsed":708458,"trial_index":24,"trial_type":"html","url":"../views/src/external/stimulus.html","rt":21343},{"block":"triangular_scaffolded","helps":0,"clicked":[["answer","clicked"],["M ","false"],["B ","false"],["J ","false"],["N ","false"],["D ","false"],["O ","false"],["K ","false"],["C ","false"],["F ","false"],["I ","false"],["H ","false"],["G ","false"],["L ","false"],["E ","false"],["A ","false"]],"answer":["1"],"correct":0,"scaffold":"show-static","question":"start+overlap","scenario":"axis","graph":"triangular","condition":"3","session":"alfa","experiment":"experiment","subject":"E8DLP","internal_node_id":"0.0-8.0-4.0","time_elapsed":726049,"trial_index":25,"trial_type":"html","url":"../views/src/external/stimulus.html","rt":16289},{"block":"triangular_testing","helps":0,"answer":["9"],"clicked":[["answer","clicked"],["M ","false"],["B ","false"],["J ","false"],["N ","false"],["D ","false"],["O ","false"],["K ","false"],["C ","false"],["F ","false"],["I ","false"],["H ","false"],["G ","false"],["L ","false"],["E ","false"],["A ","false"]],"correct":1,"scaffold":"none","question":"start+duration","scenario":"axis","graph":"triangular","condition":"3","session":"alfa","experiment":"experiment","subject":"E8DLP","internal_node_id":"0.0-9.0-0.0","time_elapsed":741841,"trial_index":26,"trial_type":"html","url":"../views/src/external/stimulus.html","rt":14509},{"block":"triangular_testing","helps":0,"answer":["E"],"clicked":[["answer","clicked"],["M ","false"],["B ","false"],["J ","false"],["N ","false"],["D ","false"],["O ","false"],["K ","false"],["C ","false"],["F ","false"],["I ","false"],["H ","false"],["G ","false"],["L ","false"],["E ","false"],["A ","false"]],"correct":0,"scaffold":"none","question":"overlap+overlap","scenario":"axis","graph":"triangular","condition":"3","session":"alfa","experiment":"experiment","subject":"E8DLP","internal_node_id":"0.0-9.0-2.0","time_elapsed":765165,"trial_index":27,"trial_type":"html","url":"../views/src/external/stimulus.html","rt":22020},{"block":"triangular_testing","helps":0,"answer":["M"],"clicked":[["answer","clicked"],["M ","false"],["B ","false"],["J ","false"],["N ","false"],["D ","false"],["O ","false"],["K ","false"],["C ","false"],["F ","false"],["I ","false"],["H ","false"],["G ","false"],["L ","false"],["E ","false"],["A ","false"]],"correct":0,"scaffold":"none","question":"during+overlap","scenario":"axis","graph":"triangular","condition":"3","session":"alfa","experiment":"experiment","subject":"E8DLP","internal_node_id":"0.0-9.0-3.0","time_elapsed":776580,"trial_index":28,"trial_type":"html","url":"../views/src/external/stimulus.html","rt":10121},{"block":"triangular_testing","helps":0,"answer":["G"],"clicked":[["answer","clicked"],["M ","false"],["B ","false"],["J ","false"],["N ","false"],["D ","false"],["O ","false"],["K ","false"],["C ","false"],["F ","false"],["I ","false"],["H ","false"],["G ","false"],["L ","false"],["E ","false"],["A ","false"]],"correct":1,"scaffold":"none","question":"starts+finishes","scenario":"axis","graph":"triangular","condition":"3","session":"alfa","experiment":"experiment","subject":"E8DLP","internal_node_id":"0.0-9.0-9.0","time_elapsed":785812,"trial_index":29,"trial_type":"html","url":"../views/src/external/stimulus.html","rt":7948},{"block":"triangular_testing","helps":0,"answer":["J","M","O"],"clicked":[["answer","clicked"],["M ","false"],["B ","false"],["J ","false"],["N ","false"],["D ","false"],["O ","false"],["K ","false"],["C ","false"],["F ","false"],["I ","false"],["H ","false"],["G ","false"],["L ","false"],["E ","false"],["A ","false"]],"correct":0,"scaffold":"none","question":"meets","scenario":"axis","graph":"triangular","condition":"3","session":"alfa","experiment":"experiment","subject":"E8DLP","internal_node_id":"0.0-9.0-8.0","time_elapsed":827414,"trial_index":30,"trial_type":"html","url":"../views/src/external/stimulus.html","rt":40291},{"block":"triangular_testing","helps":0,"answer":["6"],"clicked":[["answer","clicked"],["M ","false"],["B ","false"],["J ","false"],["N ","false"],["D ","false"],["O ","false"],["K ","false"],["C ","false"],["F ","false"],["I ","false"],["H ","false"],["G ","false"],["L ","false"],["E ","false"],["A ","false"]],"correct":1,"scaffold":"none","question":"starts","scenario":"axis","graph":"triangular","condition":"3","session":"alfa","experiment":"experiment","subject":"E8DLP","internal_node_id":"0.0-9.0-5.0","time_elapsed":845022,"trial_index":31,"trial_type":"html","url":"../views/src/external/stimulus.html","rt":16332},{"block":"triangular_testing","helps":0,"answer":["E"],"clicked":[["answer","clicked"],["M ","false"],["B ","false"],["J ","false"],["N ","false"],["D ","false"],["O ","false"],["K ","false"],["C ","false"],["F ","false"],["I ","false"],["H ","false"],["G ","false"],["L ","false"],["E ","false"],["A ","false"]],"correct":0,"scaffold":"none","question":"contain+duration","scenario":"axis","graph":"triangular","condition":"3","session":"alfa","experiment":"experiment","subject":"E8DLP","internal_node_id":"0.0-9.0-4.0","time_elapsed":862050,"trial_index":32,"trial_type":"html","url":"../views/src/external/stimulus.html","rt":15700},{"block":"triangular_testing","helps":0,"answer":["F","G","H","L","M","O"],"clicked":[["answer","clicked"],["M ","false"],["B ","false"],["J ","false"],["N ","false"],["D ","false"],["O ","false"],["K ","false"],["C ","false"],["F ","false"],["I ","false"],["H ","false"],["G ","false"],["L ","false"],["E ","false"],["A ","false"]],"correct":0,"scaffold":"none","question":"before+overlap","scenario":"axis","graph":"triangular","condition":"3","session":"alfa","experiment":"experiment","subject":"E8DLP","internal_node_id":"0.0-9.0-1.0","time_elapsed":892637,"trial_index":33,"trial_type":"html","url":"../views/src/external/stimulus.html","rt":29286},{"block":"triangular_testing","helps":0,"answer":["M"],"clicked":[["answer","clicked"],["M ","false"],["B ","false"],["J ","false"],["N ","false"],["D ","false"],["O ","false"],["K ","false"],["C ","false"],["F ","false"],["I ","false"],["H ","false"],["G ","false"],["L ","false"],["E ","false"],["A ","false"]],"correct":0,"scaffold":"none","question":"during","scenario":"axis","graph":"triangular","condition":"3","session":"alfa","experiment":"experiment","subject":"E8DLP","internal_node_id":"0.0-9.0-7.0","time_elapsed":903761,"trial_index":34,"trial_type":"html","url":"../views/src/external/stimulus.html","rt":9783},{"block":"triangular_testing","helps":0,"answer":["N"],"clicked":[["answer","clicked"],["M ","false"],["B ","false"],["J ","false"],["N ","false"],["D ","false"],["O ","false"],["K ","false"],["C ","false"],["F ","false"],["I ","false"],["H ","false"],["G ","false"],["L ","false"],["E ","false"],["A ","false"]],"correct":0,"scaffold":"none","question":"finishes","scenario":"axis","graph":"triangular","condition":"3","session":"alfa","experiment":"experiment","subject":"E8DLP","internal_node_id":"0.0-9.0-6.0","time_elapsed":918849,"trial_index":35,"trial_type":"html","url":"../views/src/external/stimulus.html","rt":13785},{"condition":"3","session":"alfa","experiment":"experiment","subject":"E8DLP","internal_node_id":"0.0-10.0","time_elapsed":923718,"trial_index":36,"trial_type":"single-stim","block":"scenario-draw","key_press":13,"stimulus":"img/jones.png","rt":3862},{"condition":"3","session":"alfa","experiment":"experiment","subject":"E8DLP","internal_node_id":"0.0-11.0","time_elapsed":1071423,"trial_index":37,"trial_type":"html","block":"instructions_drawing","url":"../views/src/external/instructions_draw.html","rt":146521},{"block":"drawingTest","clicked":[["answer","clicked"]],"answer":["I4"],"correct":0,"scaffold":"none","question":"duration","scenario":"jones","graph":"none","condition":"3","session":"alfa","experiment":"experiment","subject":"E8DLP","internal_node_id":"0.0-12.0","time_elapsed":1242570,"trial_index":38,"trial_type":"html","url":"../views/src/external/stimulus.html","rt":169706},{"block":"drawingTest","clicked":[["answer","clicked"]],"answer":["Bahar"],"correct":0,"scaffold":"none","question":"overlap","scenario":"jones","graph":"none","condition":"3","session":"alfa","experiment":"experiment","subject":"E8DLP","internal_node_id":"0.0-13.0","time_elapsed":1280524,"trial_index":39,"trial_type":"html","url":"../views/src/external/stimulus.html","rt":36491},{"condition":"3","session":"alfa","experiment":"experiment","subject":"E8DLP","internal_node_id":"0.0-14.0","time_elapsed":1291417,"trial_index":40,"trial_type":"survey-text","block":"demo-1","responses":"{\"Q0\":\"19\",\"Q1\":\"TURKEY\"}","rt":9887},{"condition":"3","session":"alfa","experiment":"experiment","subject":"E8DLP","internal_node_id":"0.0-15.0","time_elapsed":1313742,"trial_index":41,"trial_type":"survey-multi-choice","block":"demo-2","responses":"{\"Q0\":\"Other\",\"Q1\":\"First\",\"Q2\":\"Natural Sciences\",\"Q3\":\"Female\",\"Q4\":\"the first one (linear\"}","rt":21304},{"condition":"3","session":"alfa","experiment":"experiment","subject":"E8DLP","internal_node_id":"0.0-16.0","time_elapsed":1321572,"trial_index":42,"trial_type":"html","block":"debrief","url":"../views/src/external/debrief.html","rt":6491}],"__v":0}
{"_id":{"$oid":"58b8739eeeccad000492c35c"},"data":[{"condition":"0","session":"alfa","experiment":"reverse","subject":"1TL49","internal_node_id":"0.0-0.0","time_elapsed":111555,"trial_index":0,"trial_type":"single-stim","block":"phone","key_press":13,"stimulus":"img/phone.png","rt":111550},{"condition":"0","session":"alfa","experiment":"reverse","subject":"1TL49","internal_node_id":"0.0-1.0","time_elapsed":128738,"trial_index":1,"trial_type":"html","block":"consent","url":"../views/src/external/consent.html","rt":15895},{"condition":"0","session":"alfa","experiment":"reverse","subject":"1TL49","internal_node_id":"0.0-2.0","time_elapsed":135575,"trial_index":2,"trial_type":"survey-text","block":"codes","responses":"{\"Q0\":\"alfa\",\"Q1\":\"0\"}","rt":5822},{"condition":"0","session":"alfa","experiment":"reverse","subject":"1TL49","internal_node_id":"0.0-3.0","time_elapsed":144494,"trial_index":3,"trial_type":"html","block":"instructions_lab","url":"../views/src/external/instructions_lab.html","rt":7746},{"condition":"0","session":"alfa","experiment":"reverse","subject":"1TL49","internal_node_id":"0.0-4.0","time_elapsed":147482,"trial_index":4,"trial_type":"single-stim","block":"scenario-two","key_press":13,"stimulus":"img/longmire.png","rt":1986},{"block":"triangular_scaffolded","helps":0,"clicked":[["answer","clicked"],["A ","false"],["M ","false"],["D ","false"],["N ","false"],["B ","false"],["F ","false"],["H ","false"],["G ","false"],["O ","false"],["C ","false"],["J ","false"],["I ","false"],["E ","false"],["L ","false"],["K ","false"]],"answer":["B"],"correct":0,"question":"start","scenario":"longmire","graph":"triangular","condition":"0","session":"alfa","experiment":"reverse","subject":"1TL49","internal_node_id":"0.0-5.0-0.0","time_elapsed":165706,"trial_index":5,"trial_type":"html","url":"../views/src/external/stimulus.html","rt":16761},{"block":"triangular_scaffolded","helps":0,"clicked":[["answer","clicked"],["A ","false"],["M ","false"],["D ","false"],["N ","false"],["B ","false"],["F ","false"],["H ","false"],["G ","false"],["O ","false"],["C ","false"],["J ","false"],["I ","false"],["E ","false"],["L ","false"],["K ","false"]],"answer":["M","N"],"correct":0,"question":"end","scenario":"longmire","graph":"triangular","condition":"0","session":"alfa","experiment":"reverse","subject":"1TL49","internal_node_id":"0.0-5.0-1.0","time_elapsed":175459,"trial_index":6,"trial_type":"html","url":"../views/src/external/stimulus.html","rt":8469},{"block":"triangular_scaffolded","helps":0,"clicked":[["answer","clicked"],["A ","false"],["M ","false"],["D ","false"],["N ","false"],["B ","false"],["F ","false"],["H ","false"],["G ","false"],["O ","false"],["C ","false"],["J ","false"],["I ","false"],["E ","false"],["L ","false"],["K ","false"]],"answer":["G","O"],"correct":1,"question":"duration","scenario":"longmire","graph":"triangular","condition":"0","session":"alfa","experiment":"reverse","subject":"1TL49","internal_node_id":"0.0-5.0-2.0","time_elapsed":192386,"trial_index":7,"trial_type":"html","url":"../views/src/external/stimulus.html","rt":15630},{"block":"triangular_scaffolded","helps":0,"clicked":[["answer","clicked"],["A ","false"],["M ","false"],["D ","false"],["N ","false"],["B ","false"],["F ","false"],["H ","false"],["G ","false"],["O ","false"],["C ","false"],["J ","false"],["I ","false"],["E ","false"],["L ","false"],["K ","false"]],"answer":["1"],"correct":1,"question":"midpoint","scenario":"longmire","graph":"triangular","condition":"0","session":"alfa","experiment":"reverse","subject":"1TL49","internal_node_id":"0.0-5.0-3.0","time_elapsed":204434,"trial_index":8,"trial_type":"html","url":"../views/src/external/stimulus.html","rt":10722},{"block":"triangular_scaffolded","helps":0,"clicked":[["answer","clicked"],["A ","false"],["M ","false"],["D ","false"],["N ","false"],["B ","false"],["F ","false"],["H ","false"],["G ","false"],["O ","false"],["C ","false"],["J ","false"],["I ","false"],["E ","false"],["L ","false"],["K ","false"]],"answer":["A"],"correct":1,"question":"start+overlap","scenario":"longmire","graph":"triangular","condition":"0","session":"alfa","experiment":"reverse","subject":"1TL49","internal_node_id":"0.0-5.0-4.0","time_elapsed":227874,"trial_index":9,"trial_type":"html","url":"../views/src/external/stimulus.html","rt":22157},{"block":"triangular_testing","helps":0,"answer":["A","C","E","G","I","J","K","L","M","O"],"clicked":[["answer","clicked"],["A ","false"],["M ","false"],["D ","false"],["N ","false"],["B ","false"],["F ","false"],["H ","false"],["G ","false"],["O ","false"],["C ","false"],["J ","false"],["I ","false"],["E ","false"],["L ","false"],["K ","false"]],"correct":0,"scaffold":"none","question":"overlap+overlap","scenario":"longmire","graph":"triangular","condition":"0","session":"alfa","experiment":"reverse","subject":"1TL49","internal_node_id":"0.0-6.0-2.0","time_elapsed":289045,"trial_index":10,"trial_type":"html","url":"../views/src/external/stimulus.html","rt":59889},{"block":"triangular_testing","helps":0,"answer":["8","1"],"clicked":[["answer","clicked"],["A ","false"],["M ","false"],["D ","false"],["N ","false"],["B ","false"],["F ","false"],["H ","false"],["G ","false"],["O ","false"],["C ","false"],["J ","false"],["I ","false"],["E ","false"],["L ","false"],["K ","false"]],"correct":0,"scaffold":"none","question":"finishes","scenario":"longmire","graph":"triangular","condition":"0","session":"alfa","experiment":"reverse","subject":"1TL49","internal_node_id":"0.0-6.0-6.0","time_elapsed":341623,"trial_index":11,"trial_type":"html","url":"../views/src/external/stimulus.html","rt":51190},{"block":"triangular_testing","helps":0,"answer":["G","O"],"clicked":[["answer","clicked"],["A ","false"],["M ","false"],["D ","false"],["N ","false"],["B ","false"],["F ","false"],["H ","false"],["G ","false"],["O ","false"],["C ","false"],["J ","false"],["I ","false"],["E ","false"],["L ","false"],["K ","false"]],"correct":1,"scaffold":"none","question":"contain+duration","scenario":"longmire","graph":"triangular","condition":"0","session":"alfa","experiment":"reverse","subject":"1TL49","internal_node_id":"0.0-6.0-4.0","time_elapsed":357330,"trial_index":12,"trial_type":"html","url":"../views/src/external/stimulus.html","rt":14424},{"block":"triangular_testing","helps":0,"answer":["9","2"],"clicked":[["answer","clicked"],["A ","false"],["M ","false"],["D ","false"],["N ","false"],["B ","false"],["F ","false"],["H ","false"],["G ","false"],["O ","false"],["C ","false"],["J ","false"],["I ","false"],["E ","false"],["L ","false"],["K ","false"]],"correct":0,"scaffold":"none","question":"starts","scenario":"longmire","graph":"triangular","condition":"0","session":"alfa","experiment":"reverse","subject":"1TL49","internal_node_id":"0.0-6.0-5.0","time_elapsed":391258,"trial_index":13,"trial_type":"html","url":"../views/src/external/stimulus.html","rt":32650},{"block":"triangular_testing","helps":0,"answer":["C","E","G","I","J","K","L","O"],"clicked":[["answer","clicked"],["A ","false"],["M ","false"],["D ","false"],["N ","false"],["B ","false"],["F ","false"],["H ","false"],["G ","false"],["O ","false"],["C ","false"],["J ","false"],["I ","false"],["E ","false"],["L ","false"],["K ","false"]],"correct":0,"scaffold":"none","question":"start+duration","scenario":"longmire","graph":"triangular","condition":"0","session":"alfa","experiment":"reverse","subject":"1TL49","internal_node_id":"0.0-6.0-0.0","time_elapsed":416796,"trial_index":14,"trial_type":"html","url":"../views/src/external/stimulus.html","rt":24256},{"block":"triangular_testing","helps":0,"answer":["B","F"],"clicked":[["answer","clicked"],["A ","false"],["M ","false"],["D ","false"],["N ","false"],["B ","false"],["F ","false"],["H ","false"],["G ","false"],["O ","false"],["C ","false"],["J ","false"],["I ","false"],["E ","false"],["L ","false"],["K ","false"]],"correct":0,"scaffold":"none","question":"during+overlap","scenario":"longmire","graph":"triangular","condition":"0","session":"alfa","experiment":"reverse","subject":"1TL49","internal_node_id":"0.0-6.0-3.0","time_elapsed":447284,"trial_index":15,"trial_type":"html","url":"../views/src/external/stimulus.html","rt":29206},{"block":"triangular_testing","helps":0,"answer":["G"],"clicked":[["answer","clicked"],["A ","false"],["M ","false"],["D ","false"],["N ","false"],["B ","false"],["F ","false"],["H ","false"],["G ","false"],["O ","false"],["C ","false"],["J ","false"],["I ","false"],["E ","false"],["L ","false"],["K ","false"]],"correct":0,"scaffold":"none","question":"meets","scenario":"longmire","graph":"triangular","condition":"0","session":"alfa","experiment":"reverse","subject":"1TL49","internal_node_id":"0.0-6.0-8.0","time_elapsed":472605,"trial_index":16,"trial_type":"html","url":"../views/src/external/stimulus.html","rt":24031},{"block":"triangular_testing","helps":0,"answer":["C"],"clicked":[["answer","clicked"],["A ","false"],["M ","false"],["D ","false"],["N ","false"],["B ","false"],["F ","false"],["H ","false"],["G ","false"],["O ","false"],["C ","false"],["J ","false"],["I ","false"],["E ","false"],["L ","false"],["K ","false"]],"correct":1,"scaffold":"none","question":"starts+finishes","scenario":"longmire","graph":"triangular","condition":"0","session":"alfa","experiment":"reverse","subject":"1TL49","internal_node_id":"0.0-6.0-9.0","time_elapsed":496543,"trial_index":17,"trial_type":"html","url":"../views/src/external/stimulus.html","rt":22660},{"block":"triangular_testing","helps":0,"answer":["A","M"],"clicked":[["answer","clicked"],["A ","false"],["M ","false"],["D ","false"],["N ","false"],["B ","false"],["F ","false"],["H ","false"],["G ","false"],["O ","false"],["C ","false"],["J ","false"],["I ","false"],["E ","false"],["L ","false"],["K ","false"]],"correct":0,"scaffold":"none","question":"before+overlap","scenario":"longmire","graph":"triangular","condition":"0","session":"alfa","experiment":"reverse","subject":"1TL49","internal_node_id":"0.0-6.0-1.0","time_elapsed":509874,"trial_index":18,"trial_type":"html","url":"../views/src/external/stimulus.html","rt":12052},{"block":"triangular_testing","helps":0,"answer":["K","L"],"clicked":[["answer","clicked"],["A ","false"],["M ","false"],["D ","false"],["N ","false"],["B ","false"],["F ","false"],["H ","false"],["G ","false"],["O ","false"],["C ","false"],["J ","false"],["I ","false"],["E ","false"],["L ","false"],["K ","false"]],"correct":0,"scaffold":"none","question":"during","scenario":"longmire","graph":"triangular","condition":"0","session":"alfa","experiment":"reverse","subject":"1TL49","internal_node_id":"0.0-6.0-7.0","time_elapsed":531903,"trial_index":19,"trial_type":"html","url":"../views/src/external/stimulus.html","rt":20751},{"condition":"0","session":"alfa","experiment":"reverse","subject":"1TL49","internal_node_id":"0.0-7.0","time_elapsed":535603,"trial_index":20,"trial_type":"single-stim","block":"scenario-one","key_press":13,"stimulus":"img/axis.png","rt":2697},{"block":"linear_scaffolded","helps":0,"clicked":[["answer","clicked"],["M ","false"],["B ","false"],["J ","false"],["N ","false"],["D ","false"],["O ","false"],["K ","false"],["C ","false"],["F ","false"],["I ","false"],["H ","false"],["G ","false"],["L ","false"],["E ","false"],["A ","false"]],"answer":["H","O"],"correct":1,"question":"start","scenario":"axis","graph":"linear","condition":"0","session":"alfa","experiment":"reverse","subject":"1TL49","internal_node_id":"0.0-8.0-0.0","time_elapsed":553403,"trial_index":21,"trial_type":"html","url":"../views/src/external/stimulus.html","rt":16503},{"block":"linear_scaffolded","helps":0,"clicked":[["answer","clicked"],["M ","false"],["B ","false"],["J ","false"],["N ","false"],["D ","false"],["O ","false"],["K ","false"],["C ","false"],["F ","false"],["I ","false"],["H ","false"],["G ","false"],["L ","false"],["E ","false"],["A ","false"]],"answer":["4"],"correct":1,"question":"end","scenario":"axis","graph":"linear","condition":"0","session":"alfa","experiment":"reverse","subject":"1TL49","internal_node_id":"0.0-8.0-1.0","time_elapsed":562034,"trial_index":22,"trial_type":"html","url":"../views/src/external/stimulus.html","rt":7346},{"block":"linear_scaffolded","helps":0,"clicked":[["answer","clicked"],["M ","false"],["B ","false"],["J ","false"],["N ","false"],["D ","false"],["O ","false"],["K ","false"],["C ","false"],["F ","false"],["I ","false"],["H ","false"],["G ","false"],["L ","false"],["E ","false"],["A ","false"]],"answer":["A","L"],"correct":0,"question":"duration","scenario":"axis","graph":"linear","condition":"0","session":"alfa","experiment":"reverse","subject":"1TL49","internal_node_id":"0.0-8.0-2.0","time_elapsed":589706,"trial_index":23,"trial_type":"html","url":"../views/src/external/stimulus.html","rt":26375},{"block":"linear_scaffolded","helps":0,"clicked":[["answer","clicked"],["M ","false"],["B ","false"],["J ","false"],["N ","false"],["D ","false"],["O ","false"],["K ","false"],["C ","false"],["F ","false"],["I ","false"],["H ","false"],["G ","false"],["L ","false"],["E ","false"],["A ","false"]],"answer":["8"],"correct":1,"question":"midpoint","scenario":"axis","graph":"linear","condition":"0","session":"alfa","experiment":"reverse","subject":"1TL49","internal_node_id":"0.0-8.0-3.0","time_elapsed":618084,"trial_index":24,"trial_type":"html","url":"../views/src/external/stimulus.html","rt":27100},{"block":"linear_scaffolded","helps":0,"clicked":[["answer","clicked"],["M ","false"],["B ","false"],["J ","false"],["N ","false"],["D ","false"],["O ","false"],["K ","false"],["C ","false"],["F ","false"],["I ","false"],["H ","false"],["G ","false"],["L ","false"],["E ","false"],["A ","false"]],"answer":["1"],"correct":0,"question":"start+overlap","scenario":"axis","graph":"linear","condition":"0","session":"alfa","experiment":"reverse","subject":"1TL49","internal_node_id":"0.0-8.0-4.0","time_elapsed":632925,"trial_index":25,"trial_type":"html","url":"../views/src/external/stimulus.html","rt":13400},{"block":"linear_testing","helps":0,"clicked":[["answer","clicked"],["M ","false"],["B ","false"],["J ","false"],["N ","false"],["D ","false"],["O ","false"],["K ","false"],["C ","false"],["F ","false"],["I ","false"],["H ","false"],["G ","false"],["L ","false"],["E ","false"],["A ","false"]],"answer":["G"],"correct":1,"scaffold":"none","question":"starts+finishes","scenario":"axis","graph":"linear","condition":"0","session":"alfa","experiment":"reverse","subject":"1TL49","internal_node_id":"0.0-9.0-9.0","time_elapsed":643989,"trial_index":26,"trial_type":"html","url":"../views/src/external/stimulus.html","rt":9786},{"block":"linear_testing","helps":0,"clicked":[["answer","clicked"],["M ","false"],["B ","false"],["J ","false"],["N ","false"],["D ","false"],["O ","false"],["K ","false"],["C ","false"],["F ","false"],["I ","false"],["H ","false"],["G ","false"],["L ","false"],["E ","false"],["A ","false"]],"answer":["O"],"correct":0,"scaffold":"none","question":"during+overlap","scenario":"axis","graph":"linear","condition":"0","session":"alfa","experiment":"reverse","subject":"1TL49","internal_node_id":"0.0-9.0-3.0","time_elapsed":671145,"trial_index":27,"trial_type":"html","url":"../views/src/external/stimulus.html","rt":25856},{"block":"linear_testing","helps":0,"clicked":[["answer","clicked"],["M ","false"],["B ","false"],["J ","false"],["N ","false"],["D ","false"],["O ","false"],["K ","false"],["C ","false"],["F ","false"],["I ","false"],["H ","false"],["G ","false"],["L ","false"],["E ","false"],["A ","false"]],"answer":["C","F"],"correct":0,"scaffold":"none","question":"overlap+overlap","scenario":"axis","graph":"linear","condition":"0","session":"alfa","experiment":"reverse","subject":"1TL49","internal_node_id":"0.0-9.0-2.0","time_elapsed":687153,"trial_index":28,"trial_type":"html","url":"../views/src/external/stimulus.html","rt":14727},{"block":"linear_testing","helps":0,"clicked":[["answer","clicked"],["M ","false"],["B ","false"],["J ","false"],["N ","false"],["D ","false"],["O ","false"],["K ","false"],["C ","false"],["F ","false"],["I ","false"],["H ","false"],["G ","false"],["L ","false"],["E ","false"],["A ","false"]],"answer":["6"],"correct":1,"scaffold":"none","question":"starts","scenario":"axis","graph":"linear","condition":"0","session":"alfa","experiment":"reverse","subject":"1TL49","internal_node_id":"0.0-9.0-5.0","time_elapsed":700488,"trial_index":29,"trial_type":"html","url":"../views/src/external/stimulus.html","rt":12043},{"block":"linear_testing","helps":0,"clicked":[["answer","clicked"],["M ","false"],["B ","false"],["J ","false"],["N ","false"],["D ","false"],["O ","false"],["K ","false"],["C ","false"],["F ","false"],["I ","false"],["H ","false"],["G ","false"],["L ","false"],["E ","false"],["A ","false"]],"answer":["F","G","O"],"correct":0,"scaffold":"none","question":"before+overlap","scenario":"axis","graph":"linear","condition":"0","session":"alfa","experiment":"reverse","subject":"1TL49","internal_node_id":"0.0-9.0-1.0","time_elapsed":742666,"trial_index":30,"trial_type":"html","url":"../views/src/external/stimulus.html","rt":40880},{"block":"linear_testing","helps":0,"clicked":[["answer","clicked"],["M ","false"],["B ","false"],["J ","false"],["N ","false"],["D ","false"],["O ","false"],["K ","false"],["C ","false"],["F ","false"],["I ","false"],["H ","false"],["G ","false"],["L ","false"],["E ","false"],["A ","false"]],"answer":["F","M","O"],"correct":1,"scaffold":"none","question":"during","scenario":"axis","graph":"linear","condition":"0","session":"alfa","experiment":"reverse","subject":"1TL49","internal_node_id":"0.0-9.0-7.0","time_elapsed":765739,"trial_index":31,"trial_type":"html","url":"../views/src/external/stimulus.html","rt":21779},{"block":"linear_testing","helps":0,"clicked":[["answer","clicked"],["M ","false"],["B ","false"],["J ","false"],["N ","false"],["D ","false"],["O ","false"],["K ","false"],["C ","false"],["F ","false"],["I ","false"],["H ","false"],["G ","false"],["L ","false"],["E ","false"],["A ","false"]],"answer":["I","L","M"],"correct":0,"scaffold":"none","question":"meets","scenario":"axis","graph":"linear","condition":"0","session":"alfa","experiment":"reverse","subject":"1TL49","internal_node_id":"0.0-9.0-8.0","time_elapsed":820331,"trial_index":32,"trial_type":"html","url":"../views/src/external/stimulus.html","rt":53308},{"block":"linear_testing","helps":0,"clicked":[["answer","clicked"],["M ","false"],["B ","false"],["J ","false"],["N ","false"],["D ","false"],["O ","false"],["K ","false"],["C ","false"],["F ","false"],["I ","false"],["H ","false"],["G ","false"],["L ","false"],["E ","false"],["A ","false"]],"answer":["G","O"],"correct":1,"scaffold":"none","question":"finishes","scenario":"axis","graph":"linear","condition":"0","session":"alfa","experiment":"reverse","subject":"1TL49","internal_node_id":"0.0-9.0-6.0","time_elapsed":831628,"trial_index":33,"trial_type":"html","url":"../views/src/external/stimulus.html","rt":10007},{"block":"linear_testing","helps":0,"clicked":[["answer","clicked"],["M ","false"],["B ","false"],["J ","false"],["N ","false"],["D ","false"],["O ","false"],["K ","false"],["C ","false"],["F ","false"],["I ","false"],["H ","false"],["G ","false"],["L ","false"],["E ","false"],["A ","false"]],"answer":["9"],"correct":1,"scaffold":"none","question":"start+duration","scenario":"axis","graph":"linear","condition":"0","session":"alfa","experiment":"reverse","subject":"1TL49","internal_node_id":"0.0-9.0-0.0","time_elapsed":848175,"trial_index":34,"trial_type":"html","url":"../views/src/external/stimulus.html","rt":15243},{"block":"linear_testing","helps":0,"clicked":[["answer","clicked"],["M ","false"],["B ","false"],["J ","false"],["N ","false"],["D ","false"],["O ","false"],["K ","false"],["C ","false"],["F ","false"],["I ","false"],["H ","false"],["G ","false"],["L ","false"],["E ","false"],["A ","false"]],"answer":["D","N","O"],"correct":0,"scaffold":"none","question":"contain+duration","scenario":"axis","graph":"linear","condition":"0","session":"alfa","experiment":"reverse","subject":"1TL49","internal_node_id":"0.0-9.0-4.0","time_elapsed":869473,"trial_index":35,"trial_type":"html","url":"../views/src/external/stimulus.html","rt":19998},{"condition":"0","session":"alfa","experiment":"reverse","subject":"1TL49","internal_node_id":"0.0-10.0","time_elapsed":871925,"trial_index":36,"trial_type":"single-stim","block":"scenario-draw","key_press":13,"stimulus":"img/jones.png","rt":1445},{"condition":"0","session":"alfa","experiment":"reverse","subject":"1TL49","internal_node_id":"0.0-11.0","time_elapsed":1222221,"trial_index":37,"trial_type":"html","block":"instructions_drawing","url":"../views/src/external/instructions_draw.html","rt":349132},{"block":"drawingTest","clicked":[["answer","clicked"]],"answer":["G3"],"correct":0,"scaffold":"none","question":"duration","scenario":"jones","graph":"none","condition":"0","session":"alfa","experiment":"reverse","subject":"1TL49","internal_node_id":"0.0-12.0","time_elapsed":1299178,"trial_index":38,"trial_type":"html","url":"../views/src/external/stimulus.html","rt":75257},{"block":"drawingTest","clicked":[["answer","clicked"]],"answer":["Chris"],"correct":0,"scaffold":"none","question":"overlap","scenario":"jones","graph":"none","condition":"0","session":"alfa","experiment":"reverse","subject":"1TL49","internal_node_id":"0.0-13.0","time_elapsed":1326187,"trial_index":39,"trial_type":"html","url":"../views/src/external/stimulus.html","rt":25288},{"condition":"0","session":"alfa","experiment":"reverse","subject":"1TL49","internal_node_id":"0.0-14.0","time_elapsed":1333091,"trial_index":40,"trial_type":"survey-text","block":"demo-1","responses":"{\"Q0\":\"19\",\"Q1\":\"USA\"}","rt":5896},{"condition":"0","session":"alfa","experiment":"reverse","subject":"1TL49","internal_node_id":"0.0-15.0","time_elapsed":1347188,"trial_index":41,"trial_type":"survey-multi-choice","block":"demo-2","responses":"{\"Q0\":\"English\",\"Q1\":\"Second\",\"Q2\":\"Social Sciences (incl. CogSci)\",\"Q3\":\"Female\",\"Q4\":\"the first one (linear\"}","rt":13086},{"condition":"0","session":"alfa","experiment":"reverse","subject":"1TL49","internal_node_id":"0.0-16.0","time_elapsed":1352540,"trial_index":42,"trial_type":"html","block":"debrief","url":"../views/src/external/debrief.html","rt":4084}],"__v":0}
{"_id":{"$oid":"58b8740ceeccad000492c35d"},"data":[{"condition":"2","session":"alfa","experiment":"experiment","subject":"HF8PP","internal_node_id":"0.0-0.0","time_elapsed":102300,"trial_index":0,"trial_type":"single-stim","block":"phone","key_press":13,"stimulus":"img/phone.png","rt":102291},{"condition":"2","session":"alfa","experiment":"experiment","subject":"HF8PP","internal_node_id":"0.0-1.0","time_elapsed":106764,"trial_index":1,"trial_type":"html","block":"consent","url":"../views/src/external/consent.html","rt":3120},{"condition":"2","session":"alfa","experiment":"experiment","subject":"HF8PP","internal_node_id":"0.0-2.0","time_elapsed":124412,"trial_index":2,"trial_type":"survey-text","block":"codes","responses":"{\"Q0\":\"alfa\",\"Q1\":\"2\"}","rt":16637},{"condition":"2","session":"alfa","experiment":"experiment","subject":"HF8PP","internal_node_id":"0.0-3.0","time_elapsed":128069,"trial_index":3,"trial_type":"html","block":"instructions_lab","url":"../views/src/external/instructions_lab.html","rt":2510},{"condition":"2","session":"alfa","experiment":"experiment","subject":"HF8PP","internal_node_id":"0.0-4.0","time_elapsed":135981,"trial_index":4,"trial_type":"single-stim","block":"scenario-one","key_press":13,"stimulus":"img/longmire.png","rt":6910},{"block":"linear_scaffolded","helps":0,"clicked":[["answer","clicked"],["A ","false"],["M ","false"],["D ","false"],["N ","false"],["B ","false"],["F ","false"],["H ","false"],["G ","false"],["O ","false"],["C ","false"],["J ","false"],["I ","false"],["E ","false"],["L ","false"],["K ","false"]],"answer":["A","I","K"],"correct":0,"scaffold":"describe-how","question":"start","scenario":"longmire","graph":"linear","condition":"2","session":"alfa","experiment":"experiment","subject":"HF8PP","internal_node_id":"0.0-5.0-0.0","time_elapsed":149799,"trial_index":5,"trial_type":"html","url":"../views/src/external/stimulus.html","rt":12390},{"block":"linear_scaffolded","helps":0,"clicked":[["answer","clicked"],["A ","false"],["M ","false"],["D ","false"],["N ","false"],["B ","false"],["F ","false"],["H ","false"],["G ","false"],["O ","false"],["C ","false"],["J ","false"],["I ","false"],["E ","false"],["L ","false"],["K ","false"]],"answer":["E","G"],"correct":0,"scaffold":"describe-how","question":"end","scenario":"longmire","graph":"linear","condition":"2","session":"alfa","experiment":"experiment","subject":"HF8PP","internal_node_id":"0.0-5.0-1.0","time_elapsed":161293,"trial_index":6,"trial_type":"html","url":"../views/src/external/stimulus.html","rt":10222},{"block":"linear_scaffolded","helps":0,"clicked":[["answer","clicked"],["A ","false"],["M ","false"],["D ","false"],["N ","false"],["B ","false"],["F ","false"],["H ","false"],["G ","false"],["O ","false"],["C ","false"],["J ","false"],["I ","false"],["E ","false"],["L ","false"],["K ","false"]],"answer":["G","O"],"correct":1,"scaffold":"describe-how","question":"duration","scenario":"longmire","graph":"linear","condition":"2","session":"alfa","experiment":"experiment","subject":"HF8PP","internal_node_id":"0.0-5.0-2.0","time_elapsed":180144,"trial_index":7,"trial_type":"html","url":"../views/src/external/stimulus.html","rt":17565},{"block":"linear_scaffolded","helps":0,"clicked":[["answer","clicked"],["A ","false"],["M ","false"],["D ","false"],["N ","false"],["B ","false"],["F ","false"],["H ","false"],["G ","false"],["O ","false"],["C ","false"],["J ","false"],["I ","false"],["E ","false"],["L ","false"],["K ","false"]],"answer":["1"],"correct":1,"scaffold":"describe-how","question":"midpoint","scenario":"longmire","graph":"linear","condition":"2","session":"alfa","experiment":"experiment","subject":"HF8PP","internal_node_id":"0.0-5.0-3.0","time_elapsed":194320,"trial_index":8,"trial_type":"html","url":"../views/src/external/stimulus.html","rt":12830},{"block":"linear_scaffolded","helps":0,"clicked":[["answer","clicked"],["A ","false"],["M ","false"],["D ","false"],["N ","false"],["B ","false"],["F ","false"],["H ","false"],["G ","false"],["O ","false"],["C ","false"],["J ","false"],["I ","false"],["E ","false"],["L ","false"],["K ","false"]],"answer":["A"],"correct":1,"scaffold":"describe-how","question":"start+overlap","scenario":"longmire","graph":"linear","condition":"2","session":"alfa","experiment":"experiment","subject":"HF8PP","internal_node_id":"0.0-5.0-4.0","time_elapsed":206305,"trial_index":9,"trial_type":"html","url":"../views/src/external/stimulus.html","rt":10696},{"block":"linear_testing","helps":0,"clicked":[["answer","clicked"],["A ","false"],["M ","false"],["D ","false"],["N ","false"],["B ","false"],["F ","false"],["H ","false"],["G ","false"],["O ","false"],["C ","false"],["J ","false"],["I ","false"],["E ","false"],["L ","false"],["K ","false"]],"answer":["B"],"correct":0,"scaffold":"none","question":"meets","scenario":"longmire","graph":"linear","condition":"2","session":"alfa","experiment":"experiment","subject":"HF8PP","internal_node_id":"0.0-6.0-8.0","time_elapsed":223296,"trial_index":10,"trial_type":"html","url":"../views/src/external/stimulus.html","rt":15695},{"block":"linear_testing","helps":0,"clicked":[["answer","clicked"],["A ","false"],["M ","false"],["D ","false"],["N ","false"],["B ","false"],["F ","false"],["H ","false"],["G ","false"],["O ","false"],["C ","false"],["J ","false"],["I ","false"],["E ","false"],["L ","false"],["K ","false"]],"answer":["4","5"],"correct":1,"scaffold":"none","question":"finishes","scenario":"longmire","graph":"linear","condition":"2","session":"alfa","experiment":"experiment","subject":"HF8PP","internal_node_id":"0.0-6.0-6.0","time_elapsed":250428,"trial_index":11,"trial_type":"html","url":"../views/src/external/stimulus.html","rt":25835},{"block":"linear_testing","helps":0,"clicked":[["answer","clicked"],["A ","false"],["M ","false"],["D ","false"],["N ","false"],["B ","false"],["F ","false"],["H ","false"],["G ","false"],["O ","false"],["C ","false"],["J ","false"],["I ","false"],["E ","false"],["L ","false"],["K ","false"]],"answer":["K","L"],"correct":1,"scaffold":"none","question":"during+overlap","scenario":"longmire","graph":"linear","condition":"2","session":"alfa","experiment":"experiment","subject":"HF8PP","internal_node_id":"0.0-6.0-3.0","time_elapsed":287392,"trial_index":12,"trial_type":"html","url":"../views/src/external/stimulus.html","rt":35682},{"block":"linear_testing","helps":0,"clicked":[["answer","clicked"],["A ","false"],["M ","false"],["D ","false"],["N ","false"],["B ","false"],["F ","false"],["H ","false"],["G ","false"],["O ","false"],["C ","false"],["J ","false"],["I ","false"],["E ","false"],["L ","false"],["K ","false"]],"answer":["C"],"correct":1,"scaffold":"none","question":"starts+finishes","scenario":"longmire","graph":"linear","condition":"2","session":"alfa","experiment":"experiment","subject":"HF8PP","internal_node_id":"0.0-6.0-9.0","time_elapsed":300518,"trial_index":13,"trial_type":"html","url":"../views/src/external/stimulus.html","rt":11847},{"block":"linear_testing","helps":0,"clicked":[["answer","clicked"],["A ","false"],["M ","false"],["D ","false"],["N ","false"],["B ","false"],["F ","false"],["H ","false"],["G ","false"],["O ","false"],["C ","false"],["J ","false"],["I ","false"],["E ","false"],["L ","false"],["K ","false"]],"answer":["B","C","D","F","G","H","I","J","L","O"],"correct":0,"scaffold":"none","question":"during","scenario":"longmire","graph":"linear","condition":"2","session":"alfa","experiment":"experiment","subject":"HF8PP","internal_node_id":"0.0-6.0-7.0","time_elapsed":369242,"trial_index":14,"trial_type":"html","url":"../views/src/external/stimulus.html","rt":67439},{"block":"linear_testing","helps":0,"clicked":[["answer","clicked"],["A ","false"],["M ","false"],["D ","false"],["N ","false"],["B ","false"],["F ","false"],["H ","false"],["G ","false"],["O ","false"],["C ","false"],["J ","false"],["I ","false"],["E ","false"],["L ","false"],["K ","false"]],"answer":["A","B","C","D","F","I"],"correct":1,"scaffold":"none","question":"before+overlap","scenario":"longmire","graph":"linear","condition":"2","session":"alfa","experiment":"experiment","subject":"HF8PP","internal_node_id":"0.0-6.0-1.0","time_elapsed":399995,"trial_index":15,"trial_type":"html","url":"../views/src/external/stimulus.html","rt":29289},{"block":"linear_testing","helps":0,"clicked":[["answer","clicked"],["A ","false"],["M ","false"],["D ","false"],["N ","false"],["B ","false"],["F ","false"],["H ","false"],["G ","false"],["O ","false"],["C ","false"],["J ","false"],["I ","false"],["E ","false"],["L ","false"],["K ","false"]],"answer":["A","M","N"],"correct":1,"scaffold":"none","question":"overlap+overlap","scenario":"longmire","graph":"linear","condition":"2","session":"alfa","experiment":"experiment","subject":"HF8PP","internal_node_id":"0.0-6.0-2.0","time_elapsed":430587,"trial_index":16,"trial_type":"html","url":"../views/src/external/stimulus.html","rt":29307},{"block":"linear_testing","helps":0,"clicked":[["answer","clicked"],["A ","false"],["M ","false"],["D ","false"],["N ","false"],["B ","false"],["F ","false"],["H ","false"],["G ","false"],["O ","false"],["C ","false"],["J ","false"],["I ","false"],["E ","false"],["L ","false"],["K ","false"]],"answer":["A","B","D","F"],"correct":1,"scaffold":"none","question":"start+duration","scenario":"longmire","graph":"linear","condition":"2","session":"alfa","experiment":"experiment","subject":"HF8PP","internal_node_id":"0.0-6.0-0.0","time_elapsed":452741,"trial_index":17,"trial_type":"html","url":"../views/src/external/stimulus.html","rt":20883},{"block":"linear_testing","helps":0,"clicked":[["answer","clicked"],["A ","false"],["M ","false"],["D ","false"],["N ","false"],["B ","false"],["F ","false"],["H ","false"],["G ","false"],["O ","false"],["C ","false"],["J ","false"],["I ","false"],["E ","false"],["L ","false"],["K ","false"]],"answer":["6","8"],"correct":1,"scaffold":"none","question":"starts","scenario":"longmire","graph":"linear","condition":"2","session":"alfa","experiment":"experiment","subject":"HF8PP","internal_node_id":"0.0-6.0-5.0","time_elapsed":486439,"trial_index":18,"trial_type":"html","url":"../views/src/external/stimulus.html","rt":32375},{"block":"linear_testing","helps":0,"clicked":[["answer","clicked"],["A ","false"],["M ","false"],["D ","false"],["N ","false"],["B ","false"],["F ","false"],["H ","false"],["G ","false"],["O ","false"],["C ","false"],["J ","false"],["I ","false"],["E ","false"],["L ","false"],["K ","false"]],"answer":["G","O"],"correct":1,"scaffold":"none","question":"contain+duration","scenario":"longmire","graph":"linear","condition":"2","session":"alfa","experiment":"experiment","subject":"HF8PP","internal_node_id":"0.0-6.0-4.0","time_elapsed":505831,"trial_index":19,"trial_type":"html","url":"../views/src/external/stimulus.html","rt":18119},{"condition":"2","session":"alfa","experiment":"experiment","subject":"HF8PP","internal_node_id":"0.0-7.0","time_elapsed":512056,"trial_index":20,"trial_type":"single-stim","block":"scenario-two","key_press":13,"stimulus":"img/axis.png","rt":5221},{"block":"triangular_scaffolded","helps":0,"clicked":[["answer","clicked"],["M ","false"],["B ","false"],["J ","false"],["N ","false"],["D ","false"],["O ","false"],["K ","false"],["C ","false"],["F ","false"],["I ","false"],["H ","false"],["G ","false"],["L ","false"],["E ","false"],["A ","false"]],"answer":["G"],"correct":0,"scaffold":"describe-how","question":"start","scenario":"axis","graph":"triangular","condition":"2","session":"alfa","experiment":"experiment","subject":"HF8PP","internal_node_id":"0.0-8.0-0.0","time_elapsed":529361,"trial_index":21,"trial_type":"html","url":"../views/src/external/stimulus.html","rt":16019},{"block":"triangular_scaffolded","helps":0,"clicked":[["answer","clicked"],["M ","false"],["B ","false"],["J ","false"],["N ","false"],["D ","false"],["O ","false"],["K ","false"],["C ","false"],["F ","false"],["I ","false"],["H ","false"],["G ","false"],["L ","false"],["E ","false"],["A ","false"]],"answer":["4"],"correct":1,"scaffold":"describe-how","question":"end","scenario":"axis","graph":"triangular","condition":"2","session":"alfa","experiment":"experiment","subject":"HF8PP","internal_node_id":"0.0-8.0-1.0","time_elapsed":598811,"trial_index":22,"trial_type":"html","url":"../views/src/external/stimulus.html","rt":68156},{"block":"triangular_scaffolded","helps":0,"clicked":[["answer","clicked"],["M ","false"],["B ","false"],["J ","false"],["N ","false"],["D ","false"],["O ","false"],["K ","false"],["C ","false"],["F ","false"],["I ","false"],["H ","false"],["G ","false"],["L ","false"],["E ","false"],["A ","false"]],"answer":["A","C","E","F","G","H","I","K","L"],"correct":1,"scaffold":"describe-how","question":"duration","scenario":"axis","graph":"triangular","condition":"2","session":"alfa","experiment":"experiment","subject":"HF8PP","internal_node_id":"0.0-8.0-2.0","time_elapsed":640137,"trial_index":23,"trial_type":"html","url":"../views/src/external/stimulus.html","rt":39884},{"block":"triangular_scaffolded","helps":0,"clicked":[["answer","clicked"],["M ","false"],["B ","false"],["J ","false"],["N ","false"],["D ","false"],["O ","false"],["K ","false"],["C ","false"],["F ","false"],["I ","false"],["H ","false"],["G ","false"],["L ","false"],["E ","false"],["A ","false"]],"answer":["8"],"correct":1,"scaffold":"describe-how","question":"midpoint","scenario":"axis","graph":"triangular","condition":"2","session":"alfa","experiment":"experiment","subject":"HF8PP","internal_node_id":"0.0-8.0-3.0","time_elapsed":664078,"trial_index":24,"trial_type":"html","url":"../views/src/external/stimulus.html","rt":22663},{"block":"triangular_scaffolded","helps":0,"clicked":[["answer","clicked"],["M ","false"],["B ","false"],["J ","false"],["N ","false"],["D ","false"],["O ","false"],["K ","false"],["C ","false"],["F ","false"],["I ","false"],["H ","false"],["G ","false"],["L ","false"],["E ","false"],["A ","false"]],"answer":["1"],"correct":0,"scaffold":"describe-how","question":"start+overlap","scenario":"axis","graph":"triangular","condition":"2","session":"alfa","experiment":"experiment","subject":"HF8PP","internal_node_id":"0.0-8.0-4.0","time_elapsed":682862,"trial_index":25,"trial_type":"html","url":"../views/src/external/stimulus.html","rt":17498},{"block":"triangular_testing","helps":0,"answer":["D","M","N","O"],"clicked":[["answer","clicked"],["M ","false"],["B ","false"],["J ","false"],["N ","false"],["D ","false"],["O ","false"],["K ","false"],["C ","false"],["F ","false"],["I ","false"],["H ","false"],["G ","false"],["L ","false"],["E ","false"],["A ","false"]],"correct":1,"scaffold":"none","question":"contain+duration","scenario":"axis","graph":"triangular","condition":"2","session":"alfa","experiment":"experiment","subject":"HF8PP","internal_node_id":"0.0-9.0-4.0","time_elapsed":709040,"trial_index":26,"trial_type":"html","url":"../views/src/external/stimulus.html","rt":24900},{"block":"triangular_testing","helps":0,"answer":["9"],"clicked":[["answer","clicked"],["M ","false"],["B ","false"],["J ","false"],["N ","false"],["D ","false"],["O ","false"],["K ","false"],["C ","false"],["F ","false"],["I ","false"],["H ","false"],["G ","false"],["L ","false"],["E ","false"],["A ","false"]],"correct":1,"scaffold":"none","question":"start+duration","scenario":"axis","graph":"triangular","condition":"2","session":"alfa","experiment":"experiment","subject":"HF8PP","internal_node_id":"0.0-9.0-0.0","time_elapsed":736448,"trial_index":27,"trial_type":"html","url":"../views/src/external/stimulus.html","rt":26078},{"block":"triangular_testing","helps":0,"answer":["6"],"clicked":[["answer","clicked"],["M ","false"],["B ","false"],["J ","false"],["N ","false"],["D ","false"],["O ","false"],["K ","false"],["C ","false"],["F ","false"],["I ","false"],["H ","false"],["G ","false"],["L ","false"],["E ","false"],["A ","false"]],"correct":1,"scaffold":"none","question":"starts","scenario":"axis","graph":"triangular","condition":"2","session":"alfa","experiment":"experiment","subject":"HF8PP","internal_node_id":"0.0-9.0-5.0","time_elapsed":752961,"trial_index":28,"trial_type":"html","url":"../views/src/external/stimulus.html","rt":15235},{"block":"triangular_testing","helps":0,"answer":["F","G","H","L","M","O"],"clicked":[["answer","clicked"],["M ","false"],["B ","false"],["J ","false"],["N ","false"],["D ","false"],["O ","false"],["K ","false"],["C ","false"],["F ","false"],["I ","false"],["H ","false"],["G ","false"],["L ","false"],["E ","false"],["A ","false"]],"correct":0,"scaffold":"none","question":"before+overlap","scenario":"axis","graph":"triangular","condition":"2","session":"alfa","experiment":"experiment","subject":"HF8PP","internal_node_id":"0.0-9.0-1.0","time_elapsed":799595,"trial_index":29,"trial_type":"html","url":"../views/src/external/stimulus.html","rt":45331},{"block":"triangular_testing","helps":0,"answer":["G"],"clicked":[["answer","clicked"],["M ","false"],["B ","false"],["J ","false"],["N ","false"],["D ","false"],["O ","false"],["K ","false"],["C ","false"],["F ","false"],["I ","false"],["H ","false"],["G ","false"],["L ","false"],["E ","false"],["A ","false"]],"correct":1,"scaffold":"none","question":"meets","scenario":"axis","graph":"triangular","condition":"2","session":"alfa","experiment":"experiment","subject":"HF8PP","internal_node_id":"0.0-9.0-8.0","time_elapsed":830261,"trial_index":30,"trial_type":"html","url":"../views/src/external/stimulus.html","rt":29370},{"block":"triangular_testing","helps":0,"answer":["F","M","O"],"clicked":[["answer","clicked"],["M ","false"],["B ","false"],["J ","false"],["N ","false"],["D ","false"],["O ","false"],["K ","false"],["C ","false"],["F ","false"],["I ","false"],["H ","false"],["G ","false"],["L ","false"],["E ","false"],["A ","false"]],"correct":1,"scaffold":"none","question":"during","scenario":"axis","graph":"triangular","condition":"2","session":"alfa","experiment":"experiment","subject":"HF8PP","internal_node_id":"0.0-9.0-7.0","time_elapsed":843040,"trial_index":31,"trial_type":"html","url":"../views/src/external/stimulus.html","rt":11484},{"block":"triangular_testing","helps":0,"answer":["A","B","C","E","J"],"clicked":[["answer","clicked"],["M ","false"],["B ","false"],["J ","false"],["N ","false"],["D ","false"],["O ","false"],["K ","false"],["C ","false"],["F ","false"],["I ","false"],["H ","false"],["G ","false"],["L ","false"],["E ","false"],["A ","false"]],"correct":1,"scaffold":"none","question":"overlap+overlap","scenario":"axis","graph":"triangular","condition":"2","session":"alfa","experiment":"experiment","subject":"HF8PP","internal_node_id":"0.0-9.0-2.0","time_elapsed":870167,"trial_index":32,"trial_type":"html","url":"../views/src/external/stimulus.html","rt":25850},{"block":"triangular_testing","helps":0,"answer":["G","O"],"clicked":[["answer","clicked"],["M ","false"],["B ","false"],["J ","false"],["N ","false"],["D ","false"],["O ","false"],["K ","false"],["C ","false"],["F ","false"],["I ","false"],["H ","false"],["G ","false"],["L ","false"],["E ","false"],["A ","false"]],"correct":1,"scaffold":"none","question":"finishes","scenario":"axis","graph":"triangular","condition":"2","session":"alfa","experiment":"experiment","subject":"HF8PP","internal_node_id":"0.0-9.0-6.0","time_elapsed":879174,"trial_index":33,"trial_type":"html","url":"../views/src/external/stimulus.html","rt":7683},{"block":"triangular_testing","helps":0,"answer":["G"],"clicked":[["answer","clicked"],["M ","false"],["B ","false"],["J ","false"],["N ","false"],["D ","false"],["O ","false"],["K ","false"],["C ","false"],["F ","false"],["I ","false"],["H ","false"],["G ","false"],["L ","false"],["E ","false"],["A ","false"]],"correct":1,"scaffold":"none","question":"starts+finishes","scenario":"axis","graph":"triangular","condition":"2","session":"alfa","experiment":"experiment","subject":"HF8PP","internal_node_id":"0.0-9.0-9.0","time_elapsed":888316,"trial_index":34,"trial_type":"html","url":"../views/src/external/stimulus.html","rt":7843},{"block":"triangular_testing","helps":0,"answer":["A"],"clicked":[["answer","clicked"],["M ","false"],["B ","false"],["J ","false"],["N ","false"],["D ","false"],["O ","false"],["K ","false"],["C ","false"],["F ","false"],["I ","false"],["H ","false"],["G ","false"],["L ","false"],["E ","false"],["A ","false"]],"correct":1,"scaffold":"none","question":"during+overlap","scenario":"axis","graph":"triangular","condition":"2","session":"alfa","experiment":"experiment","subject":"HF8PP","internal_node_id":"0.0-9.0-3.0","time_elapsed":911265,"trial_index":35,"trial_type":"html","url":"../views/src/external/stimulus.html","rt":21657},{"condition":"2","session":"alfa","experiment":"experiment","subject":"HF8PP","internal_node_id":"0.0-10.0","time_elapsed":914474,"trial_index":36,"trial_type":"single-stim","block":"scenario-draw","key_press":13,"stimulus":"img/jones.png","rt":2204},{"condition":"2","session":"alfa","experiment":"experiment","subject":"HF8PP","internal_node_id":"0.0-11.0","time_elapsed":1287717,"trial_index":37,"trial_type":"html","block":"instructions_drawing","url":"../views/src/external/instructions_draw.html","rt":372105},{"block":"drawingTest","clicked":[["answer","clicked"]],"answer":["C1"],"correct":1,"scaffold":"none","question":"duration","scenario":"jones","graph":"none","condition":"2","session":"alfa","experiment":"experiment","subject":"HF8PP","internal_node_id":"0.0-12.0","time_elapsed":1358723,"trial_index":38,"trial_type":"html","url":"../views/src/external/stimulus.html","rt":69395},{"block":"drawingTest","clicked":[["answer","clicked"]],"answer":["Chris","3-4pm"],"correct":1,"scaffold":"none","question":"overlap","scenario":"jones","graph":"none","condition":"2","session":"alfa","experiment":"experiment","subject":"HF8PP","internal_node_id":"0.0-13.0","time_elapsed":1411837,"trial_index":39,"trial_type":"html","url":"../views/src/external/stimulus.html","rt":51396},{"condition":"2","session":"alfa","experiment":"experiment","subject":"HF8PP","internal_node_id":"0.0-14.0","time_elapsed":1420235,"trial_index":40,"trial_type":"survey-text","block":"demo-1","responses":"{\"Q0\":\"20\",\"Q1\":\"United States\"}","rt":7391},{"condition":"2","session":"alfa","experiment":"experiment","subject":"HF8PP","internal_node_id":"0.0-15.0","time_elapsed":1433572,"trial_index":41,"trial_type":"survey-multi-choice","block":"demo-2","responses":"{\"Q0\":\"English\",\"Q1\":\"Third\",\"Q2\":\"Math or Computer Sciences\",\"Q3\":\"Male\",\"Q4\":\"the second one (triangular)\"}","rt":12316},{"condition":"2","session":"alfa","experiment":"experiment","subject":"HF8PP","internal_node_id":"0.0-16.0","time_elapsed":1436835,"trial_index":42,"trial_type":"html","block":"debrief","url":"../views/src/external/debrief.html","rt":1880}],"__v":0}
{"_id":{"$oid":"58b8746beeccad000492c35e"},"data":[{"condition":"0","session":"alfa","experiment":"experiment","subject":"Y6F1V","internal_node_id":"0.0-0.0","time_elapsed":79565,"trial_index":0,"trial_type":"single-stim","block":"phone","key_press":13,"stimulus":"img/phone.png","rt":79556},{"condition":"0","session":"alfa","experiment":"experiment","subject":"Y6F1V","internal_node_id":"0.0-1.0","time_elapsed":89309,"trial_index":1,"trial_type":"html","block":"consent","url":"../views/src/external/consent.html","rt":8432},{"condition":"0","session":"alfa","experiment":"experiment","subject":"Y6F1V","internal_node_id":"0.0-2.0","time_elapsed":97867,"trial_index":2,"trial_type":"survey-text","block":"codes","responses":"{\"Q0\":\"alfa\",\"Q1\":\"+\"}","rt":7543},{"condition":"0","session":"alfa","experiment":"experiment","subject":"Y6F1V","internal_node_id":"0.0-3.0","time_elapsed":104317,"trial_index":3,"trial_type":"html","block":"instructions_lab","url":"../views/src/external/instructions_lab.html","rt":5277},{"condition":"0","session":"alfa","experiment":"experiment","subject":"Y6F1V","internal_node_id":"0.0-4.0","time_elapsed":116959,"trial_index":4,"trial_type":"single-stim","block":"scenario-one","key_press":13,"stimulus":"img/longmire.png","rt":11639},{"block":"linear_scaffolded","helps":0,"clicked":[["answer","clicked"],["A ","false"],["M ","false"],["D ","false"],["N ","false"],["B ","false"],["F ","false"],["H ","false"],["G ","false"],["O ","false"],["C ","false"],["J ","false"],["I ","false"],["E ","false"],["L ","false"],["K ","false"]],"answer":["C","D","L"],"correct":1,"question":"start","scenario":"longmire","graph":"linear","condition":"0","session":"alfa","experiment":"experiment","subject":"Y6F1V","internal_node_id":"0.0-5.0-0.0","time_elapsed":134735,"trial_index":5,"trial_type":"html","url":"../views/src/external/stimulus.html","rt":16174},{"block":"linear_scaffolded","helps":0,"clicked":[["answer","clicked"],["A ","false"],["M ","false"],["D ","false"],["N ","false"],["B ","false"],["F ","false"],["H ","false"],["G ","false"],["O ","false"],["C ","false"],["J ","false"],["I ","false"],["E ","false"],["L ","false"],["K ","false"]],"answer":["M","N"],"correct":0,"question":"end","scenario":"longmire","graph":"linear","condition":"0","session":"alfa","experiment":"experiment","subject":"Y6F1V","internal_node_id":"0.0-5.0-1.0","time_elapsed":146620,"trial_index":6,"trial_type":"html","url":"../views/src/external/stimulus.html","rt":10610},{"block":"linear_scaffolded","helps":0,"clicked":[["answer","clicked"],["A ","false"],["M ","false"],["D ","false"],["N ","false"],["B ","false"],["F ","false"],["H ","false"],["G ","false"],["O ","false"],["C ","false"],["J ","false"],["I ","false"],["E ","false"],["L ","false"],["K ","false"]],"answer":["G","O"],"correct":1,"question":"duration","scenario":"longmire","graph":"linear","condition":"0","session":"alfa","experiment":"experiment","subject":"Y6F1V","internal_node_id":"0.0-5.0-2.0","time_elapsed":177804,"trial_index":7,"trial_type":"html","url":"../views/src/external/stimulus.html","rt":29912},{"block":"linear_scaffolded","helps":0,"clicked":[["answer","clicked"],["A ","false"],["M ","false"],["D ","false"],["N ","false"],["B ","false"],["F ","false"],["H ","false"],["G ","false"],["O ","false"],["C ","false"],["J ","false"],["I ","false"],["E ","false"],["L ","false"],["K ","false"]],"answer":["1"],"correct":1,"question":"midpoint","scenario":"longmire","graph":"linear","condition":"0","session":"alfa","experiment":"experiment","subject":"Y6F1V","internal_node_id":"0.0-5.0-3.0","time_elapsed":191532,"trial_index":8,"trial_type":"html","url":"../views/src/external/stimulus.html","rt":12454},{"block":"linear_scaffolded","helps":0,"clicked":[["answer","clicked"],["A ","false"],["M ","false"],["D ","false"],["N ","false"],["B ","false"],["F ","false"],["H ","false"],["G ","false"],["O ","false"],["C ","false"],["J ","false"],["I ","false"],["E ","false"],["L ","false"],["K ","false"]],"answer":["A"],"correct":1,"question":"start+overlap","scenario":"longmire","graph":"linear","condition":"0","session":"alfa","experiment":"experiment","subject":"Y6F1V","internal_node_id":"0.0-5.0-4.0","time_elapsed":203395,"trial_index":9,"trial_type":"html","url":"../views/src/external/stimulus.html","rt":10585},{"block":"linear_testing","helps":0,"clicked":[["answer","clicked"],["A ","false"],["M ","false"],["D ","false"],["N ","false"],["B ","false"],["F ","false"],["H ","false"],["G ","false"],["O ","false"],["C ","false"],["J ","false"],["I ","false"],["E ","false"],["L ","false"],["K ","false"]],"answer":["C"],"correct":1,"scaffold":"none","question":"starts+finishes","scenario":"longmire","graph":"linear","condition":"0","session":"alfa","experiment":"experiment","subject":"Y6F1V","internal_node_id":"0.0-6.0-9.0","time_elapsed":217999,"trial_index":10,"trial_type":"html","url":"../views/src/external/stimulus.html","rt":13325},{"block":"linear_testing","helps":0,"clicked":[["answer","clicked"],["A ","false"],["M ","false"],["D ","false"],["N ","false"],["B ","false"],["F ","false"],["H ","false"],["G ","false"],["O ","false"],["C ","false"],["J ","false"],["I ","false"],["E ","false"],["L ","false"],["K ","false"]],"answer":["G","O"],"correct":1,"scaffold":"none","question":"contain+duration","scenario":"longmire","graph":"linear","condition":"0","session":"alfa","experiment":"experiment","subject":"Y6F1V","internal_node_id":"0.0-6.0-4.0","time_elapsed":238870,"trial_index":11,"trial_type":"html","url":"../views/src/external/stimulus.html","rt":19598},{"block":"linear_testing","helps":0,"clicked":[["answer","clicked"],["A ","false"],["M ","false"],["D ","false"],["N ","false"],["B ","false"],["F ","false"],["H ","false"],["G ","false"],["O ","false"],["C ","false"],["J ","false"],["I ","false"],["E ","false"],["L ","false"],["K ","false"]],"answer":["M"],"correct":0,"scaffold":"none","question":"during","scenario":"longmire","graph":"linear","condition":"0","session":"alfa","experiment":"experiment","subject":"Y6F1V","internal_node_id":"0.0-6.0-7.0","time_elapsed":265562,"trial_index":12,"trial_type":"html","url":"../views/src/external/stimulus.html","rt":25400},{"block":"linear_testing","helps":0,"clicked":[["answer","clicked"],["A ","false"],["M ","false"],["D ","false"],["N ","false"],["B ","false"],["F ","false"],["H ","false"],["G ","false"],["O ","false"],["C ","false"],["J ","false"],["I ","false"],["E ","false"],["L ","false"],["K ","false"]],"answer":["6","8"],"correct":1,"scaffold":"none","question":"starts","scenario":"longmire","graph":"linear","condition":"0","session":"alfa","experiment":"experiment","subject":"Y6F1V","internal_node_id":"0.0-6.0-5.0","time_elapsed":294714,"trial_index":13,"trial_type":"html","url":"../views/src/external/stimulus.html","rt":27869},{"block":"linear_testing","helps":0,"clicked":[["answer","clicked"],["A ","false"],["M ","false"],["D ","false"],["N ","false"],["B ","false"],["F ","false"],["H ","false"],["G ","false"],["O ","false"],["C ","false"],["J ","false"],["I ","false"],["E ","false"],["L ","false"],["K ","false"]],"answer":["A","M"],"correct":0,"scaffold":"none","question":"overlap+overlap","scenario":"longmire","graph":"linear","condition":"0","session":"alfa","experiment":"experiment","subject":"Y6F1V","internal_node_id":"0.0-6.0-2.0","time_elapsed":314794,"trial_index":14,"trial_type":"html","url":"../views/src/external/stimulus.html","rt":18802},{"block":"linear_testing","helps":0,"clicked":[["answer","clicked"],["A ","false"],["M ","false"],["D ","false"],["N ","false"],["B ","false"],["F ","false"],["H ","false"],["G ","false"],["O ","false"],["C ","false"],["J ","false"],["I ","false"],["E ","false"],["L ","false"],["K ","false"]],"answer":["K","L"],"correct":1,"scaffold":"none","question":"during+overlap","scenario":"longmire","graph":"linear","condition":"0","session":"alfa","experiment":"experiment","subject":"Y6F1V","internal_node_id":"0.0-6.0-3.0","time_elapsed":337341,"trial_index":15,"trial_type":"html","url":"../views/src/external/stimulus.html","rt":21273},{"block":"linear_testing","helps":0,"clicked":[["answer","clicked"],["A ","false"],["M ","false"],["D ","false"],["N ","false"],["B ","false"],["F ","false"],["H ","false"],["G ","false"],["O ","false"],["C ","false"],["J ","false"],["I ","false"],["E ","false"],["L ","false"],["K ","false"]],"answer":["O"],"correct":1,"scaffold":"none","question":"meets","scenario":"longmire","graph":"linear","condition":"0","session":"alfa","experiment":"experiment","subject":"Y6F1V","internal_node_id":"0.0-6.0-8.0","time_elapsed":352198,"trial_index":16,"trial_type":"html","url":"../views/src/external/stimulus.html","rt":13581},{"block":"linear_testing","helps":0,"clicked":[["answer","clicked"],["A ","false"],["M ","false"],["D ","false"],["N ","false"],["B ","false"],["F ","false"],["H ","false"],["G ","false"],["O ","false"],["C ","false"],["J ","false"],["I ","false"],["E ","false"],["L ","false"],["K ","false"]],"answer":["A","B","C","D","F"],"correct":0,"scaffold":"none","question":"before+overlap","scenario":"longmire","graph":"linear","condition":"0","session":"alfa","experiment":"experiment","subject":"Y6F1V","internal_node_id":"0.0-6.0-1.0","time_elapsed":377885,"trial_index":17,"trial_type":"html","url":"../views/src/external/stimulus.html","rt":24405},{"block":"linear_testing","helps":0,"clicked":[["answer","clicked"],["A ","false"],["M ","false"],["D ","false"],["N ","false"],["B ","false"],["F ","false"],["H ","false"],["G ","false"],["O ","false"],["C ","false"],["J ","false"],["I ","false"],["E ","false"],["L ","false"],["K ","false"]],"answer":["B","C","E","F","G","I","J","K","L"],"correct":0,"scaffold":"none","question":"start+duration","scenario":"longmire","graph":"linear","condition":"0","session":"alfa","experiment":"experiment","subject":"Y6F1V","internal_node_id":"0.0-6.0-0.0","time_elapsed":430288,"trial_index":18,"trial_type":"html","url":"../views/src/external/stimulus.html","rt":51131},{"block":"linear_testing","helps":0,"clicked":[["answer","clicked"],["A ","false"],["M ","false"],["D ","false"],["N ","false"],["B ","false"],["F ","false"],["H ","false"],["G ","false"],["O ","false"],["C ","false"],["J ","false"],["I ","false"],["E ","false"],["L ","false"],["K ","false"]],"answer":["4","5"],"correct":1,"scaffold":"none","question":"finishes","scenario":"longmire","graph":"linear","condition":"0","session":"alfa","experiment":"experiment","subject":"Y6F1V","internal_node_id":"0.0-6.0-6.0","time_elapsed":453771,"trial_index":19,"trial_type":"html","url":"../views/src/external/stimulus.html","rt":22207},{"condition":"0","session":"alfa","experiment":"experiment","subject":"Y6F1V","internal_node_id":"0.0-7.0","time_elapsed":459511,"trial_index":20,"trial_type":"single-stim","block":"scenario-two","key_press":13,"stimulus":"img/axis.png","rt":4735},{"block":"triangular_scaffolded","helps":0,"clicked":[["answer","clicked"],["M ","false"],["B ","false"],["J ","false"],["N ","false"],["D ","false"],["O ","false"],["K ","false"],["C ","false"],["F ","false"],["I ","false"],["H ","false"],["G ","false"],["L ","false"],["E ","false"],["A ","false"]],"answer":["G"],"correct":0,"question":"start","scenario":"axis","graph":"triangular","condition":"0","session":"alfa","experiment":"experiment","subject":"Y6F1V","internal_node_id":"0.0-8.0-0.0","time_elapsed":470130,"trial_index":21,"trial_type":"html","url":"../views/src/external/stimulus.html","rt":9334},{"block":"triangular_scaffolded","helps":0,"clicked":[["answer","clicked"],["M ","false"],["B ","false"],["J ","false"],["N ","false"],["D ","false"],["O ","false"],["K ","false"],["C ","false"],["F ","false"],["I ","false"],["H ","false"],["G ","false"],["L ","false"],["E ","false"],["A ","false"]],"answer":["6"],"correct":0,"question":"end","scenario":"axis","graph":"triangular","condition":"0","session":"alfa","experiment":"experiment","subject":"Y6F1V","internal_node_id":"0.0-8.0-1.0","time_elapsed":479723,"trial_index":22,"trial_type":"html","url":"../views/src/external/stimulus.html","rt":8311},{"block":"triangular_scaffolded","helps":0,"clicked":[["answer","clicked"],["M ","false"],["B ","false"],["J ","false"],["N ","false"],["D ","false"],["O ","false"],["K ","false"],["C ","false"],["F ","false"],["I ","false"],["H ","false"],["G ","false"],["L ","false"],["E ","false"],["A ","false"]],"answer":["A","E","G","L"],"correct":0,"question":"duration","scenario":"axis","graph":"triangular","condition":"0","session":"alfa","experiment":"experiment","subject":"Y6F1V","internal_node_id":"0.0-8.0-2.0","time_elapsed":503637,"trial_index":23,"trial_type":"html","url":"../views/src/external/stimulus.html","rt":22610},{"block":"triangular_scaffolded","helps":0,"clicked":[["answer","clicked"],["M ","false"],["B ","false"],["J ","false"],["N ","false"],["D ","false"],["O ","false"],["K ","false"],["C ","false"],["F ","false"],["I ","false"],["H ","false"],["G ","false"],["L ","false"],["E ","false"],["A ","false"]],"answer":["8"],"correct":1,"question":"midpoint","scenario":"axis","graph":"triangular","condition":"0","session":"alfa","experiment":"experiment","subject":"Y6F1V","internal_node_id":"0.0-8.0-3.0","time_elapsed":517223,"trial_index":24,"trial_type":"html","url":"../views/src/external/stimulus.html","rt":12305},{"block":"triangular_scaffolded","helps":0,"clicked":[["answer","clicked"],["M ","false"],["B ","false"],["J ","false"],["N ","false"],["D ","false"],["O ","false"],["K ","false"],["C ","false"],["F ","false"],["I ","false"],["H ","false"],["G ","false"],["L ","false"],["E ","false"],["A ","false"]],"answer":["8"],"correct":0,"question":"start+overlap","scenario":"axis","graph":"triangular","condition":"0","session":"alfa","experiment":"experiment","subject":"Y6F1V","internal_node_id":"0.0-8.0-4.0","time_elapsed":534248,"trial_index":25,"trial_type":"html","url":"../views/src/external/stimulus.html","rt":15741},{"block":"triangular_testing","helps":0,"answer":["2"],"clicked":[["answer","clicked"],["M ","false"],["B ","false"],["J ","false"],["N ","false"],["D ","false"],["O ","false"],["K ","false"],["C ","false"],["F ","false"],["I ","false"],["H ","false"],["G ","false"],["L ","false"],["E ","false"],["A ","false"]],"correct":0,"scaffold":"none","question":"starts","scenario":"axis","graph":"triangular","condition":"0","session":"alfa","experiment":"experiment","subject":"Y6F1V","internal_node_id":"0.0-9.0-5.0","time_elapsed":546252,"trial_index":26,"trial_type":"html","url":"../views/src/external/stimulus.html","rt":10709},{"block":"triangular_testing","helps":0,"answer":["B"],"clicked":[["answer","clicked"],["M ","false"],["B ","false"],["J ","false"],["N ","false"],["D ","false"],["O ","false"],["K ","false"],["C ","false"],["F ","false"],["I ","false"],["H ","false"],["G ","false"],["L ","false"],["E ","false"],["A ","false"]],"correct":0,"scaffold":"none","question":"overlap+overlap","scenario":"axis","graph":"triangular","condition":"0","session":"alfa","experiment":"experiment","subject":"Y6F1V","internal_node_id":"0.0-9.0-2.0","time_elapsed":557356,"trial_index":27,"trial_type":"html","url":"../views/src/external/stimulus.html","rt":9825},{"block":"triangular_testing","helps":0,"answer":["3"],"clicked":[["answer","clicked"],["M ","false"],["B ","false"],["J ","false"],["N ","false"],["D ","false"],["O ","false"],["K ","false"],["C ","false"],["F ","false"],["I ","false"],["H ","false"],["G ","false"],["L ","false"],["E ","false"],["A ","false"]],"correct":0,"scaffold":"none","question":"start+duration","scenario":"axis","graph":"triangular","condition":"0","session":"alfa","experiment":"experiment","subject":"Y6F1V","internal_node_id":"0.0-9.0-0.0","time_elapsed":583159,"trial_index":28,"trial_type":"html","url":"../views/src/external/stimulus.html","rt":24523},{"block":"triangular_testing","helps":0,"answer":["M"],"clicked":[["answer","clicked"],["M ","false"],["B ","false"],["J ","false"],["N ","false"],["D ","false"],["O ","false"],["K ","false"],["C ","false"],["F ","false"],["I ","false"],["H ","false"],["G ","false"],["L ","false"],["E ","false"],["A ","false"]],"correct":0,"scaffold":"none","question":"starts+finishes","scenario":"axis","graph":"triangular","condition":"0","session":"alfa","experiment":"experiment","subject":"Y6F1V","internal_node_id":"0.0-9.0-9.0","time_elapsed":614428,"trial_index":29,"trial_type":"html","url":"../views/src/external/stimulus.html","rt":29982},{"block":"triangular_testing","helps":0,"answer":["A","E","L"],"clicked":[["answer","clicked"],["M ","false"],["B ","false"],["J ","false"],["N ","false"],["D ","false"],["O ","false"],["K ","false"],["C ","false"],["F ","false"],["I ","false"],["H ","false"],["G ","false"],["L ","false"],["E ","false"],["A ","false"]],"correct":0,"scaffold":"none","question":"during","scenario":"axis","graph":"triangular","condition":"0","session":"alfa","experiment":"experiment","subject":"Y6F1V","internal_node_id":"0.0-9.0-7.0","time_elapsed":627175,"trial_index":30,"trial_type":"html","url":"../views/src/external/stimulus.html","rt":11321},{"block":"triangular_testing","helps":0,"answer":["D","N"],"clicked":[["answer","clicked"],["M ","false"],["B ","false"],["J ","false"],["N ","false"],["D ","false"],["O ","false"],["K ","false"],["C ","false"],["F ","false"],["I ","false"],["H ","false"],["G ","false"],["L ","false"],["E ","false"],["A ","false"]],"correct":0,"scaffold":"none","question":"during+overlap","scenario":"axis","graph":"triangular","condition":"0","session":"alfa","experiment":"experiment","subject":"Y6F1V","internal_node_id":"0.0-9.0-3.0","time_elapsed":641673,"trial_index":31,"trial_type":"html","url":"../views/src/external/stimulus.html","rt":13209},{"block":"triangular_testing","helps":0,"answer":["B","D","J"],"clicked":[["answer","clicked"],["M ","false"],["B ","false"],["J ","false"],["N ","false"],["D ","false"],["O ","false"],["K ","false"],["C ","false"],["F ","false"],["I ","false"],["H ","false"],["G ","false"],["L ","false"],["E ","false"],["A ","false"]],"correct":0,"scaffold":"none","question":"before+overlap","scenario":"axis","graph":"triangular","condition":"0","session":"alfa","experiment":"experiment","subject":"Y6F1V","internal_node_id":"0.0-9.0-1.0","time_elapsed":660029,"trial_index":32,"trial_type":"html","url":"../views/src/external/stimulus.html","rt":17075},{"block":"triangular_testing","helps":0,"answer":["H","L"],"clicked":[["answer","clicked"],["M ","false"],["B ","false"],["J ","false"],["N ","false"],["D ","false"],["O ","false"],["K ","false"],["C ","false"],["F ","false"],["I ","false"],["H ","false"],["G ","false"],["L ","false"],["E ","false"],["A ","false"]],"correct":0,"scaffold":"none","question":"finishes","scenario":"axis","graph":"triangular","condition":"0","session":"alfa","experiment":"experiment","subject":"Y6F1V","internal_node_id":"0.0-9.0-6.0","time_elapsed":670570,"trial_index":33,"trial_type":"html","url":"../views/src/external/stimulus.html","rt":9271},{"block":"triangular_testing","helps":0,"answer":["E"],"clicked":[["answer","clicked"],["M ","false"],["B ","false"],["J ","false"],["N ","false"],["D ","false"],["O ","false"],["K ","false"],["C ","false"],["F ","false"],["I ","false"],["H ","false"],["G ","false"],["L ","false"],["E ","false"],["A ","false"]],"correct":0,"scaffold":"none","question":"contain+duration","scenario":"axis","graph":"triangular","condition":"0","session":"alfa","experiment":"experiment","subject":"Y6F1V","internal_node_id":"0.0-9.0-4.0","time_elapsed":693108,"trial_index":34,"trial_type":"html","url":"../views/src/external/stimulus.html","rt":21252},{"block":"triangular_testing","helps":0,"answer":["A","B","D","K"],"clicked":[["answer","clicked"],["M ","false"],["B ","false"],["J ","false"],["N ","false"],["D ","false"],["O ","false"],["K ","false"],["C ","false"],["F ","false"],["I ","false"],["H ","false"],["G ","false"],["L ","false"],["E ","false"],["A ","false"]],"correct":0,"scaffold":"none","question":"meets","scenario":"axis","graph":"triangular","condition":"0","session":"alfa","experiment":"experiment","subject":"Y6F1V","internal_node_id":"0.0-9.0-8.0","time_elapsed":718473,"trial_index":35,"trial_type":"html","url":"../views/src/external/stimulus.html","rt":24070},{"condition":"0","session":"alfa","experiment":"experiment","subject":"Y6F1V","internal_node_id":"0.0-10.0","time_elapsed":725878,"trial_index":36,"trial_type":"single-stim","block":"scenario-draw","key_press":13,"stimulus":"img/jones.png","rt":6400},{"condition":"0","session":"alfa","experiment":"experiment","subject":"Y6F1V","internal_node_id":"0.0-11.0","time_elapsed":780133,"trial_index":37,"trial_type":"html","block":"instructions_drawing","url":"../views/src/external/instructions_draw.html","rt":53103},{"block":"drawingTest","clicked":[["answer","clicked"]],"answer":["C1"],"correct":1,"scaffold":"none","question":"duration","scenario":"jones","graph":"none","condition":"0","session":"alfa","experiment":"experiment","subject":"Y6F1V","internal_node_id":"0.0-12.0","time_elapsed":1453900,"trial_index":38,"trial_type":"html","url":"../views/src/external/stimulus.html","rt":672493},{"block":"drawingTest","clicked":[["answer","clicked"]],"answer":["Chris","3-4pm"],"correct":1,"scaffold":"none","question":"overlap","scenario":"jones","graph":"none","condition":"0","session":"alfa","experiment":"experiment","subject":"Y6F1V","internal_node_id":"0.0-13.0","time_elapsed":1484373,"trial_index":39,"trial_type":"html","url":"../views/src/external/stimulus.html","rt":28532},{"condition":"0","session":"alfa","experiment":"experiment","subject":"Y6F1V","internal_node_id":"0.0-14.0","time_elapsed":1491583,"trial_index":40,"trial_type":"survey-text","block":"demo-1","responses":"{\"Q0\":\"24\",\"Q1\":\"USA\"}","rt":6202},{"condition":"0","session":"alfa","experiment":"experiment","subject":"Y6F1V","internal_node_id":"0.0-15.0","time_elapsed":1505436,"trial_index":41,"trial_type":"survey-multi-choice","block":"demo-2","responses":"{\"Q0\":\"English\",\"Q1\":\"Fifth\",\"Q2\":\"Social Sciences (incl. CogSci)\",\"Q3\":\"Female\",\"Q4\":\"the first one (linear\"}","rt":12830},{"condition":"0","session":"alfa","experiment":"experiment","subject":"Y6F1V","internal_node_id":"0.0-16.0","time_elapsed":1508756,"trial_index":42,"trial_type":"html","block":"debrief","url":"../views/src/external/debrief.html","rt":2139}],"__v":0}
