{"_id":{"$oid":"5a1d9a6c072c000004438260"},"data":[{"condition":"311","session":"golf","graph":"triangular","experiment":"2YP3","subject":"LSRUK","internal_node_id":"0.0-0.0","time_elapsed":122550,"trial_index":0,"trial_type":"single-stim","block":"phone","key_press":13,"stimulus":"img/phone.png","rt":122545},{"condition":"311","session":"golf","graph":"triangular","experiment":"2YP3","subject":"LSRUK","internal_node_id":"0.0-1.0","time_elapsed":126946,"trial_index":1,"trial_type":"html","block":"consent","url":"../views/src/external/consent.html","rt":3027},{"condition":"311","session":"golf","graph":"triangular","experiment":"2YP3","subject":"LSRUK","internal_node_id":"0.0-2.0","time_elapsed":138057,"trial_index":2,"trial_type":"survey-text","block":"codes","responses":"{\"Q0\":\"golf\",\"Q1\":\"311\"}","rt":10095},{"condition":"311","session":"golf","graph":"triangular","experiment":"2YP3","subject":"LSRUK","internal_node_id":"0.0-3.0","time_elapsed":150420,"trial_index":3,"trial_type":"html","block":"instructions_lab","url":"../views/src/external/instructions_lab.html","rt":11270},{"condition":"311","session":"golf","graph":"triangular","experiment":"2YP3","subject":"LSRUK","internal_node_id":"0.0-4.0","time_elapsed":159928,"trial_index":4,"trial_type":"single-stim","block":"scenario","key_press":13,"stimulus":"img/acme.png","rt":8505},{"mouseLog":["{x:1911,y:1911,t:0};","{x:992,y:1011,t:1511889159237};","{x:1012,y:1007,t:1511889159244};","{x:1051,y:996,t:1511889159259};","{x:1140,y:978,t:1511889159276};","{x:1188,y:970,t:1511889159291};","{x:1225,y:959,t:1511889159309};","{x:1253,y:947,t:1511889159326};","{x:1272,y:936,t:1511889159341};","{x:1287,y:926,t:1511889159359};","{x:1298,y:915,t:1511889159376};","{x:1306,y:905,t:1511889159392};","{x:1310,y:897,t:1511889159409};","{x:1311,y:887,t:1511889159426};","{x:1311,y:879,t:1511889159442};","{x:1308,y:871,t:1511889159459};","{x:1287,y:861,t:1511889159476};","{x:1263,y:857,t:1511889159492};","{x:1237,y:853,t:1511889159509};","{x:1208,y:848,t:1511889159526};","{x:1181,y:844,t:1511889159542};","{x:1153,y:841,t:1511889159559};","{x:1120,y:835,t:1511889159576};","{x:1093,y:829,t:1511889159592};","{x:1071,y:822,t:1511889159609};","{x:1047,y:814,t:1511889159626};","{x:1030,y:811,t:1511889159642};","{x:1014,y:807,t:1511889159659};","{x:1008,y:804,t:1511889159676};","{x:1008,y:808,t:1511889159820};","{x:1010,y:814,t:1511889159828};","{x:1014,y:819,t:1511889159843};","{x:1025,y:832,t:1511889159859};","{x:1032,y:838,t:1511889159876};","{x:1036,y:840,t:1511889159892};","{x:1037,y:841,t:1511889159909};","{x:1038,y:842,t:1511889159926};","{x:1039,y:842,t:1511889160029};","{x:1039,y:841,t:1511889160052};","{x:1039,y:840,t:1511889160068};","{x:1039,y:838,t:1511889160084};","{x:1040,y:837,t:1511889160092};","{x:1041,y:833,t:1511889160123};","{x:1043,y:828,t:1511889160142};","{x:1043,y:827,t:1511889160158};","{x:1044,y:824,t:1511889160178};","{x:1045,y:824,t:1511889160193};","{x:1045,y:823,t:1511889160210};","{x:1045,y:825,t:1511889160440};","{x:1043,y:830,t:1511889160460};","{x:1042,y:832,t:1511889160476};","{x:1042,y:834,t:1511889167509};","{x:1049,y:835,t:1511889167521};","{x:1072,y:842,t:1511889167547};","{x:1092,y:851,t:1511889167564};","{x:1098,y:855,t:1511889167583};","{x:1100,y:858,t:1511889167600};","{x:1104,y:863,t:1511889167616};","{x:1106,y:869,t:1511889167633};","{x:1109,y:874,t:1511889167650};","{x:1112,y:879,t:1511889167666};","{x:1114,y:886,t:1511889167683};","{x:1118,y:896,t:1511889167700};","{x:1122,y:903,t:1511889167716};","{x:1126,y:908,t:1511889167733};","{x:1129,y:920,t:1511889167750};","{x:1129,y:935,t:1511889167767};","{x:1129,y:950,t:1511889167783};","{x:1123,y:961,t:1511889167800};","{x:1120,y:965,t:1511889167817};","{x:1117,y:966,t:1511889167833};","{x:1112,y:970,t:1511889167850};","{x:1102,y:975,t:1511889167867};","{x:1085,y:984,t:1511889167884};","{x:1075,y:988,t:1511889167900};","{x:1065,y:989,t:1511889167917};","{x:1058,y:989,t:1511889167934};","{x:1053,y:989,t:1511889167950};","{x:1050,y:989,t:1511889167967};","{x:1046,y:989,t:1511889167983};","{x:1043,y:989,t:1511889168000};","{x:1037,y:989,t:1511889168017};","{x:1031,y:989,t:1511889168033};","{x:1023,y:988,t:1511889168051};","{x:1019,y:987,t:1511889168067};","{x:1018,y:987,t:1511889168108};","{x:1020,y:985,t:1511889168157};","{x:1021,y:984,t:1511889168167};","{x:1028,y:981,t:1511889168184};","{x:1033,y:979,t:1511889168200};","{x:1037,y:977,t:1511889168217};","{x:1042,y:976,t:1511889168234};","{x:1045,y:973,t:1511889168250};","{x:1047,y:972,t:1511889168267};","{x:1049,y:970,t:1511889168284};","{x:1050,y:969,t:1511889168301};","{x:1052,y:969,t:1511889168318};","{x:1055,y:966,t:1511889168334};","{x:1057,y:965,t:1511889168351};","{x:1057,y:964,t:1511889168368};","{x:1057,y:963,t:1511889168385};","{x:1057,y:962,t:1511889168629};","{x:1057,y:960,t:1511889168644};","{x:1056,y:960,t:1511889168652};","{x:1056,y:959,t:1511889168668};","{x:1055,y:958,t:1511889168684};","{x:1054,y:957,t:1511889169028};","{x:1053,y:956,t:1511889169051};","{x:1053,y:955,t:1511889169301};","{x:1053,y:954,t:1511889169700};","{x:1053,y:952,t:1511889169716};","{x:1053,y:951,t:1511889169724};","{x:1053,y:950,t:1511889169735};","{x:1053,y:949,t:1511889169751};","{x:1053,y:948,t:1511889169769};","{x:1053,y:947,t:1511889169786};","{x:1053,y:946,t:1511889169804};","{x:1053,y:945,t:1511889169819};","{x:1053,y:943,t:1511889169836};","{x:1053,y:942,t:1511889169852};","{x:1053,y:940,t:1511889169876};","{x:1053,y:939,t:1511889169908};","{x:1053,y:938,t:1511889169919};","{x:1053,y:937,t:1511889169936};","{x:1054,y:935,t:1511889169952};","{x:1056,y:933,t:1511889169972};","{x:1056,y:932,t:1511889169996};","{x:1057,y:929,t:1511889170133};","{x:1058,y:928,t:1511889170164};","{x:1058,y:927,t:1511889170180};","{x:1059,y:927,t:1511889170188};","{x:1059,y:926,t:1511889170203};","{x:1061,y:923,t:1511889170219};","{x:1065,y:916,t:1511889170236};","{x:1067,y:913,t:1511889170252};","{x:1068,y:910,t:1511889170269};","{x:1071,y:904,t:1511889170286};","{x:1075,y:898,t:1511889170303};","{x:1081,y:885,t:1511889170319};","{x:1090,y:859,t:1511889170336};","{x:1102,y:818,t:1511889170353};","{x:1105,y:766,t:1511889170369};","{x:1104,y:721,t:1511889170386};","{x:1100,y:698,t:1511889170403};","{x:1100,y:680,t:1511889170420};","{x:1105,y:672,t:1511889170436};","{x:1111,y:667,t:1511889170452};","{x:1118,y:662,t:1511889170469};","{x:1122,y:658,t:1511889170486};","{x:1125,y:657,t:1511889170503};","{x:1129,y:655,t:1511889170520};","{x:1131,y:654,t:1511889170536};","{x:1132,y:654,t:1511889170553};","{x:1133,y:654,t:1511889170570};","{x:1134,y:654,t:1511889170586};","{x:1138,y:657,t:1511889170603};","{x:1148,y:667,t:1511889170620};","{x:1151,y:670,t:1511889170636};","{x:1155,y:677,t:1511889170652};","{x:1156,y:680,t:1511889170670};","{x:1157,y:684,t:1511889170686};","{x:1159,y:689,t:1511889170703};","{x:1159,y:692,t:1511889170720};","{x:1160,y:695,t:1511889170736};","{x:1160,y:697,t:1511889170753};","{x:1160,y:699,t:1511889170770};","{x:1160,y:701,t:1511889170786};","{x:1160,y:703,t:1511889170803};","{x:1160,y:707,t:1511889170820};","{x:1160,y:710,t:1511889170836};","{x:1160,y:715,t:1511889170853};","{x:1160,y:719,t:1511889170870};","{x:1162,y:722,t:1511889170887};","{x:1162,y:724,t:1511889170904};","{x:1162,y:725,t:1511889170924};","{x:1162,y:726,t:1511889170948};","{x:1162,y:727,t:1511889170956};","{x:1162,y:728,t:1511889170970};","{x:1162,y:729,t:1511889171012};","{x:1162,y:730,t:1511889171020};","{x:1162,y:732,t:1511889171036};","{x:1160,y:735,t:1511889171053};","{x:1159,y:739,t:1511889171070};","{x:1158,y:741,t:1511889171087};","{x:1158,y:742,t:1511889171148};","{x:1156,y:744,t:1511889171172};","{x:1156,y:745,t:1511889171188};","{x:1155,y:745,t:1511889171244};","{x:1155,y:747,t:1511889171284};","{x:1153,y:748,t:1511889171308};","{x:1152,y:750,t:1511889171373};","{x:1152,y:751,t:1511889171453};","{x:1151,y:752,t:1511889171484};","{x:1151,y:753,t:1511889171540};","{x:1151,y:754,t:1511889171554};","{x:1151,y:756,t:1511889171570};","{x:1150,y:756,t:1511889171587};","{x:1150,y:757,t:1511889171604};","{x:1150,y:758,t:1511889171676};","{x:1150,y:759,t:1511889171687};","{x:1150,y:760,t:1511889171708};","{x:1150,y:761,t:1511889171732};","{x:1150,y:763,t:1511889171740};","{x:1150,y:764,t:1511889171756};","{x:1150,y:765,t:1511889171771};","{x:1150,y:766,t:1511889171853};","{x:1150,y:768,t:1511889171871};","{x:1150,y:769,t:1511889171900};","{x:1150,y:770,t:1511889171949};","{x:1150,y:771,t:1511889172004};","{x:1147,y:771,t:1511889172189};","{x:1144,y:770,t:1511889172204};","{x:1141,y:768,t:1511889172228};","{x:1138,y:766,t:1511889172237};","{x:1136,y:765,t:1511889172254};","{x:1135,y:765,t:1511889172270};","{x:1136,y:765,t:1511889172540};","{x:1137,y:765,t:1511889172554};","{x:1139,y:765,t:1511889172576};","{x:1141,y:765,t:1511889172587};","{x:1140,y:765,t:1511889177051};","{x:1137,y:765,t:1511889177068};","{x:1114,y:758,t:1511889177092};","{x:1078,y:748,t:1511889177107};","{x:1003,y:722,t:1511889177123};","{x:897,y:691,t:1511889177140};","{x:767,y:653,t:1511889177157};","{x:640,y:615,t:1511889177173};","{x:518,y:581,t:1511889177190};","{x:416,y:551,t:1511889177207};","{x:319,y:523,t:1511889177223};","{x:250,y:506,t:1511889177240};","{x:226,y:500,t:1511889177257};","{x:218,y:500,t:1511889177273};","{x:217,y:500,t:1511889177356};","{x:216,y:500,t:1511889177372};","{x:215,y:500,t:1511889177388};","{x:215,y:502,t:1511889177412};","{x:215,y:505,t:1511889177424};","{x:215,y:511,t:1511889177440};","{x:217,y:517,t:1511889177457};","{x:228,y:531,t:1511889177474};","{x:242,y:548,t:1511889177492};","{x:260,y:569,t:1511889177507};","{x:269,y:574,t:1511889177524};","{x:273,y:577,t:1511889177540};","{x:275,y:579,t:1511889177557};","{x:276,y:579,t:1511889177683};","{x:276,y:580,t:1511889177691};","{x:276,y:581,t:1511889177707};","{x:276,y:583,t:1511889177724};","{x:275,y:584,t:1511889177740};","{x:274,y:585,t:1511889177757};","{x:274,y:586,t:1511889177775};","{x:273,y:587,t:1511889177791};","{x:272,y:588,t:1511889177807};","{x:268,y:590,t:1511889177825};","{x:267,y:591,t:1511889177841};","{x:264,y:593,t:1511889177858};","{x:262,y:594,t:1511889177874};","{x:258,y:597,t:1511889177891};","{x:253,y:601,t:1511889177907};","{x:251,y:604,t:1511889177924};","{x:251,y:607,t:1511889177941};","{x:251,y:609,t:1511889177957};","{x:250,y:611,t:1511889177974};","{x:248,y:615,t:1511889177991};","{x:248,y:618,t:1511889178007};","{x:248,y:624,t:1511889178024};","{x:250,y:629,t:1511889178041};","{x:252,y:630,t:1511889178057};","{x:262,y:634,t:1511889178074};","{x:293,y:641,t:1511889178092};","{x:320,y:644,t:1511889178108};","{x:346,y:649,t:1511889178124};","{x:379,y:652,t:1511889178141};","{x:406,y:656,t:1511889178158};","{x:432,y:660,t:1511889178175};","{x:457,y:661,t:1511889178191};","{x:479,y:661,t:1511889178208};","{x:488,y:661,t:1511889178225};","{x:491,y:661,t:1511889178241};","{x:492,y:661,t:1511889178257};","{x:491,y:661,t:1511889178403};","{x:491,y:660,t:1511889178411};","{x:491,y:659,t:1511889178424};","{x:489,y:656,t:1511889178441};","{x:489,y:650,t:1511889178458};","{x:489,y:648,t:1511889178474};","{x:485,y:643,t:1511889178491};","{x:481,y:640,t:1511889178508};","{x:478,y:638,t:1511889178525};","{x:474,y:637,t:1511889178541};","{x:473,y:636,t:1511889178571};","{x:473,y:634,t:1511889178668};","{x:473,y:633,t:1511889178683};","{x:474,y:633,t:1511889178700};","{x:476,y:633,t:1511889178724};","{x:477,y:633,t:1511889178731};","{x:481,y:632,t:1511889178741};","{x:488,y:630,t:1511889178759};","{x:493,y:629,t:1511889178775};","{x:496,y:629,t:1511889178791};","{x:497,y:629,t:1511889178808};","{x:497,y:628,t:1511889178859};","{x:499,y:628,t:1511889178891};","{x:501,y:628,t:1511889178907};","{x:504,y:628,t:1511889178915};","{x:507,y:630,t:1511889178925};","{x:529,y:632,t:1511889178942};","{x:556,y:636,t:1511889178958};","{x:581,y:640,t:1511889178975};","{x:603,y:640,t:1511889178992};","{x:617,y:640,t:1511889179008};","{x:621,y:640,t:1511889179025};","{x:622,y:640,t:1511889179042};","{x:621,y:640,t:1511889179108};","{x:620,y:640,t:1511889179125};","{x:618,y:640,t:1511889179142};","{x:617,y:640,t:1511889179159};","{x:612,y:640,t:1511889179175};","{x:604,y:640,t:1511889179192};","{x:594,y:640,t:1511889179208};","{x:585,y:637,t:1511889179226};","{x:582,y:637,t:1511889179242};","{x:580,y:636,t:1511889179258};","{x:580,y:635,t:1511889179371};","{x:580,y:634,t:1511889179420};","{x:580,y:633,t:1511889179533};","{x:585,y:634,t:1511889179997};","{x:607,y:639,t:1511889180011};","{x:704,y:667,t:1511889180027};","{x:834,y:688,t:1511889180044};","{x:1091,y:733,t:1511889180060};","{x:1246,y:752,t:1511889180078};","{x:1368,y:771,t:1511889180095};","{x:1455,y:788,t:1511889180111};","{x:1513,y:805,t:1511889180128};","{x:1537,y:811,t:1511889180145};","{x:1547,y:815,t:1511889180160};","{x:1548,y:815,t:1511889180178};","{x:1539,y:814,t:1511889180253};","{x:1528,y:808,t:1511889180261};","{x:1503,y:801,t:1511889180278};","{x:1475,y:793,t:1511889180294};","{x:1428,y:781,t:1511889180310};","{x:1369,y:760,t:1511889180328};","{x:1297,y:740,t:1511889180345};","{x:1241,y:724,t:1511889180361};","{x:1208,y:719,t:1511889180378};","{x:1193,y:717,t:1511889180395};","{x:1188,y:716,t:1511889180411};","{x:1186,y:716,t:1511889180477};","{x:1184,y:718,t:1511889180495};","{x:1183,y:720,t:1511889180511};","{x:1183,y:725,t:1511889180528};","{x:1183,y:728,t:1511889180545};","{x:1183,y:733,t:1511889180562};","{x:1184,y:736,t:1511889180578};","{x:1184,y:742,t:1511889180595};","{x:1185,y:750,t:1511889180612};","{x:1188,y:759,t:1511889180627};","{x:1198,y:775,t:1511889180644};","{x:1202,y:779,t:1511889180661};","{x:1206,y:784,t:1511889180678};","{x:1209,y:788,t:1511889180695};","{x:1213,y:794,t:1511889180712};","{x:1216,y:799,t:1511889180728};","{x:1217,y:803,t:1511889180745};","{x:1219,y:807,t:1511889180762};","{x:1224,y:815,t:1511889180777};","{x:1228,y:820,t:1511889180795};","{x:1229,y:823,t:1511889180812};","{x:1231,y:824,t:1511889180828};","{x:1231,y:825,t:1511889180845};","{x:1233,y:827,t:1511889180862};","{x:1236,y:830,t:1511889180878};","{x:1240,y:832,t:1511889180899};","{x:1241,y:832,t:1511889180911};","{x:1242,y:833,t:1511889180928};","{x:1241,y:833,t:1511889182540};","{x:1240,y:833,t:1511889182556};","{x:1239,y:833,t:1511889182564};","{x:1238,y:833,t:1511889182579};","{x:1237,y:833,t:1511889182637};","{x:1236,y:833,t:1511889183045};","{x:1235,y:833,t:1511889183093};","{x:1233,y:832,t:1511889183117};","{x:1232,y:832,t:1511889183130};","{x:1228,y:830,t:1511889183147};","{x:1217,y:825,t:1511889183163};","{x:1199,y:817,t:1511889183180};","{x:1160,y:804,t:1511889183197};","{x:1126,y:794,t:1511889183213};","{x:1095,y:785,t:1511889183230};","{x:1075,y:779,t:1511889183247};","{x:1067,y:775,t:1511889183263};","{x:1063,y:773,t:1511889183280};","{x:1063,y:774,t:1511889183485};","{x:1063,y:776,t:1511889183497};","{x:1063,y:779,t:1511889183514};","{x:1064,y:782,t:1511889183530};","{x:1064,y:785,t:1511889183547};","{x:1064,y:787,t:1511889183564};","{x:1064,y:791,t:1511889183580};","{x:1064,y:797,t:1511889183597};","{x:1064,y:801,t:1511889183614};","{x:1065,y:805,t:1511889183630};","{x:1067,y:810,t:1511889183647};","{x:1067,y:812,t:1511889183664};","{x:1067,y:815,t:1511889183680};","{x:1067,y:817,t:1511889183697};","{x:1067,y:818,t:1511889183741};","{x:1067,y:819,t:1511889183748};","{x:1065,y:819,t:1511889183764};","{x:1062,y:821,t:1511889183781};","{x:1056,y:822,t:1511889183797};","{x:1049,y:825,t:1511889183814};","{x:1047,y:825,t:1511889183830};","{x:1046,y:825,t:1511889183854};","{x:1046,y:826,t:1511889183899};","{x:1045,y:826,t:1511889183915};","{x:1044,y:826,t:1511889183930};","{x:1043,y:826,t:1511889183955};","{x:1043,y:828,t:1511889184724};","{x:1045,y:830,t:1511889184731};","{x:1050,y:833,t:1511889184748};","{x:1082,y:857,t:1511889184764};","{x:1130,y:893,t:1511889184780};","{x:1194,y:937,t:1511889184797};","{x:1241,y:964,t:1511889184814};","{x:1271,y:978,t:1511889184830};","{x:1287,y:984,t:1511889184849};","{x:1292,y:984,t:1511889184866};","{x:1290,y:981,t:1511889184950};","{x:1283,y:975,t:1511889184966};","{x:1267,y:964,t:1511889184983};","{x:1247,y:955,t:1511889184999};","{x:1227,y:947,t:1511889185016};","{x:1209,y:942,t:1511889185033};","{x:1198,y:938,t:1511889185049};","{x:1194,y:937,t:1511889185066};","{x:1192,y:936,t:1511889185083};","{x:1192,y:935,t:1511889185135};","{x:1192,y:934,t:1511889185166};","{x:1190,y:932,t:1511889185184};","{x:1187,y:930,t:1511889185200};","{x:1182,y:928,t:1511889185217};","{x:1176,y:926,t:1511889185234};","{x:1173,y:925,t:1511889185250};","{x:1172,y:924,t:1511889185267};","{x:1169,y:924,t:1511889185284};","{x:1166,y:923,t:1511889185300};","{x:1163,y:922,t:1511889185317};","{x:1159,y:920,t:1511889185334};","{x:1155,y:918,t:1511889185351};","{x:1152,y:916,t:1511889185367};","{x:1151,y:916,t:1511889185384};","{x:1148,y:914,t:1511889185401};","{x:1143,y:911,t:1511889185417};","{x:1138,y:909,t:1511889185434};","{x:1132,y:906,t:1511889185450};","{x:1128,y:905,t:1511889185467};","{x:1125,y:904,t:1511889185484};","{x:1124,y:903,t:1511889185526};","{x:1124,y:902,t:1511889185679};","{x:1124,y:901,t:1511889185719};","{x:1123,y:900,t:1511889185774};","{x:1122,y:899,t:1511889185910};","{x:1122,y:898,t:1511889185926};","{x:1122,y:897,t:1511889185934};","{x:1120,y:896,t:1511889185950};","{x:1118,y:893,t:1511889185968};","{x:1116,y:893,t:1511889186303};","{x:1115,y:893,t:1511889186343};","{x:1115,y:894,t:1511889187126};","{x:1113,y:898,t:1511889187134};","{x:1112,y:899,t:1511889187151};","{x:1111,y:898,t:1511889189782};","{x:1108,y:892,t:1511889189790};","{x:1106,y:882,t:1511889189808};","{x:1102,y:860,t:1511889189819};","{x:1097,y:832,t:1511889189836};","{x:1097,y:796,t:1511889189853};","{x:1107,y:757,t:1511889189869};","{x:1117,y:701,t:1511889189886};","{x:1126,y:623,t:1511889189903};","{x:1146,y:525,t:1511889189920};","{x:1172,y:418,t:1511889189936};","{x:1192,y:319,t:1511889189953};","{x:1203,y:236,t:1511889189970};","{x:1211,y:177,t:1511889189986};","{x:1233,y:118,t:1511889190003};","{x:1251,y:81,t:1511889190020};","{x:1277,y:46,t:1511889190036};","{x:1309,y:0,t:1511889190053};","{x:1333,y:0,t:1511889190070};","{x:1371,y:0,t:1511889190086};","{x:1400,y:0,t:1511889190103};","{x:1430,y:0,t:1511889190120};","{x:1454,y:0,t:1511889190136};","{x:1468,y:0,t:1511889190153};","{x:1478,y:0,t:1511889190170};","{x:1480,y:0,t:1511889190187};","{x:1481,y:3,t:1511889190230};","{x:1472,y:17,t:1511889190238};","{x:1451,y:46,t:1511889190254};","{x:1425,y:76,t:1511889190270};","{x:1407,y:94,t:1511889190287};","{x:1387,y:110,t:1511889190303};","{x:1365,y:123,t:1511889190320};","{x:1345,y:135,t:1511889190337};","{x:1329,y:145,t:1511889190354};","{x:1314,y:154,t:1511889190371};","{x:1296,y:164,t:1511889190388};","{x:1280,y:173,t:1511889190404};","{x:1260,y:181,t:1511889190421};","{x:1237,y:190,t:1511889190438};","{x:1233,y:191,t:1511889190454};","{x:1232,y:191,t:1511889190470};","{x:1231,y:191,t:1511889190574};","{x:1231,y:190,t:1511889190622};","{x:1234,y:188,t:1511889190638};","{x:1235,y:185,t:1511889190654};","{x:1235,y:182,t:1511889190671};","{x:1237,y:178,t:1511889190688};","{x:1239,y:176,t:1511889190705};","{x:1241,y:174,t:1511889190721};","{x:1242,y:173,t:1511889190738};","{x:1242,y:171,t:1511889190758};","{x:1242,y:170,t:1511889190771};","{x:1243,y:169,t:1511889190788};","{x:1243,y:167,t:1511889190812};","{x:1244,y:167,t:1511889190837};","{x:1245,y:168,t:1511889191758};","{x:1246,y:171,t:1511889191776};","{x:1251,y:179,t:1511889191788};","{x:1257,y:189,t:1511889191804};","{x:1271,y:207,t:1511889191821};","{x:1283,y:221,t:1511889191838};","{x:1293,y:232,t:1511889191854};","{x:1306,y:244,t:1511889191871};","{x:1320,y:255,t:1511889191888};","{x:1338,y:270,t:1511889191904};","{x:1357,y:290,t:1511889191921};","{x:1373,y:306,t:1511889191938};","{x:1383,y:321,t:1511889191954};","{x:1388,y:330,t:1511889191971};","{x:1393,y:339,t:1511889191988};","{x:1396,y:350,t:1511889192005};","{x:1397,y:353,t:1511889192021};","{x:1397,y:354,t:1511889192038};","{x:1397,y:355,t:1511889192055};","{x:1397,y:357,t:1511889192071};","{x:1397,y:358,t:1511889192088};","{x:1397,y:360,t:1511889192105};","{x:1397,y:362,t:1511889192121};","{x:1397,y:364,t:1511889192139};","{x:1396,y:368,t:1511889192156};","{x:1396,y:374,t:1511889192171};","{x:1395,y:381,t:1511889192189};","{x:1392,y:390,t:1511889192206};","{x:1389,y:398,t:1511889192222};","{x:1387,y:403,t:1511889192239};","{x:1387,y:405,t:1511889192256};","{x:1387,y:406,t:1511889192272};","{x:1387,y:408,t:1511889192289};","{x:1387,y:409,t:1511889192310};","{x:1387,y:410,t:1511889192322};","{x:1385,y:411,t:1511889192338};","{x:1385,y:412,t:1511889192356};","{x:1385,y:413,t:1511889192372};","{x:1384,y:414,t:1511889192389};","{x:1383,y:416,t:1511889192406};","{x:1383,y:418,t:1511889192646};","{x:1382,y:419,t:1511889192662};","{x:1381,y:420,t:1511889192894};","{x:1378,y:422,t:1511889192905};","{x:1377,y:428,t:1511889192929};","{x:1374,y:434,t:1511889192949};","{x:1373,y:435,t:1511889192956};","{x:1372,y:437,t:1511889192972};","{x:1372,y:438,t:1511889193445};","{x:1373,y:438,t:1511889193461};","{x:1373,y:439,t:1511889193472};","{x:1374,y:439,t:1511889193501};","{x:1375,y:439,t:1511889193509};","{x:1376,y:439,t:1511889193522};","{x:1379,y:439,t:1511889193539};","{x:1380,y:439,t:1511889193556};","{x:1381,y:439,t:1511889193782};","{x:1382,y:439,t:1511889193790};","{x:1383,y:439,t:1511889193807};","{x:1385,y:439,t:1511889193824};","{x:1386,y:439,t:1511889193840};","{x:1388,y:438,t:1511889193857};","{x:1390,y:437,t:1511889193874};","{x:1391,y:436,t:1511889194166};","{x:1391,y:435,t:1511889194174};","{x:1391,y:434,t:1511889194198};","{x:1392,y:433,t:1511889194206};","{x:1392,y:432,t:1511889194224};","{x:1387,y:432,t:1511889194533};","{x:1384,y:432,t:1511889194541};","{x:1377,y:432,t:1511889194559};","{x:1373,y:432,t:1511889194573};","{x:1371,y:432,t:1511889194590};","{x:1370,y:432,t:1511889195371};","{x:1306,y:458,t:1511889195391};","{x:1174,y:512,t:1511889195407};","{x:965,y:599,t:1511889195424};","{x:729,y:682,t:1511889195441};","{x:499,y:765,t:1511889195457};","{x:273,y:831,t:1511889195474};","{x:67,y:877,t:1511889195491};","{x:0,y:895,t:1511889195507};","{x:0,y:889,t:1511889195525};","{x:0,y:879,t:1511889195541};","{x:0,y:872,t:1511889195557};","{x:0,y:865,t:1511889195574};","{x:0,y:857,t:1511889195591};","{x:4,y:851,t:1511889195607};","{x:15,y:842,t:1511889195624};","{x:41,y:821,t:1511889195641};","{x:91,y:778,t:1511889195657};","{x:159,y:725,t:1511889195675};","{x:226,y:679,t:1511889195691};","{x:293,y:642,t:1511889195707};","{x:361,y:617,t:1511889195724};","{x:413,y:608,t:1511889195741};","{x:435,y:603,t:1511889195757};","{x:445,y:603,t:1511889195774};","{x:448,y:603,t:1511889195792};","{x:449,y:603,t:1511889195808};","{x:450,y:603,t:1511889195854};","{x:453,y:603,t:1511889195862};","{x:454,y:603,t:1511889195878};","{x:455,y:603,t:1511889195891};","{x:456,y:603,t:1511889195925};","{x:456,y:616,t:1511889195941};","{x:456,y:646,t:1511889195958};","{x:454,y:676,t:1511889195975};","{x:452,y:694,t:1511889195992};","{x:452,y:699,t:1511889196008};","{x:452,y:700,t:1511889196024};","{x:452,y:701,t:1511889196041};","{x:451,y:703,t:1511889196059};","{x:451,y:705,t:1511889196074};","{x:451,y:707,t:1511889196091};","{x:451,y:711,t:1511889196108};","{x:450,y:712,t:1511889196124};"],"block":"triangular_scaffolded","hovered":"-A -A -A -11 AM-11 AM-F -F -U -A -03 PM-Z -Z -J -X -D -D -D ","clicked":[["answer","clicked"],["X ","false"],["C ","false"],["O ","false"],["I ","false"],["J ","false"],["A ","false"],["H ","false"],["F ","false"],["K ","false"],["D ","false"],["U ","false"],["E ","false"],["G ","false"],["B ","false"],["Z ","false"]],"answer":["F"],"orth_correct":0,"correct":1,"axis":"full","impasse":1,"explicit":3,"q":1,"question":"starttime","scenario":"acme","condition":"311","session":"golf","graph":"triangular","experiment":"2YP3","subject":"LSRUK","internal_node_id":"0.0-5.0-0.0","time_elapsed":213076,"trial_index":5,"trial_type":"html","url":"../views/src/external/stimulus.html","rt":51817},{"mouseLog":["{x:1911,y:1911,t:0};","{x:449,y:712,t:1511889199447};","{x:448,y:712,t:1511889199454};","{x:446,y:712,t:1511889199465};","{x:443,y:710,t:1511889199481};","{x:479,y:702,t:1511889204543};","{x:684,y:663,t:1511889204562};","{x:927,y:633,t:1511889204579};","{x:1288,y:633,t:1511889204597};","{x:1479,y:633,t:1511889204614};","{x:1626,y:633,t:1511889204631};","{x:1728,y:633,t:1511889204647};","{x:1768,y:632,t:1511889204664};","{x:1779,y:629,t:1511889204681};","{x:1778,y:628,t:1511889204750};","{x:1776,y:627,t:1511889204766};","{x:1776,y:626,t:1511889204781};","{x:1773,y:617,t:1511889204797};","{x:1762,y:593,t:1511889204814};","{x:1747,y:578,t:1511889204831};","{x:1725,y:559,t:1511889204847};","{x:1682,y:534,t:1511889204867};","{x:1611,y:491,t:1511889204881};","{x:1535,y:455,t:1511889204897};","{x:1461,y:424,t:1511889204914};","{x:1411,y:401,t:1511889204931};","{x:1383,y:389,t:1511889204947};","{x:1366,y:382,t:1511889204964};","{x:1362,y:382,t:1511889204981};","{x:1362,y:381,t:1511889205038};","{x:1361,y:380,t:1511889205663};","{x:1359,y:381,t:1511889205670};","{x:1357,y:382,t:1511889205686};","{x:1355,y:383,t:1511889205699};","{x:1353,y:384,t:1511889205716};","{x:1352,y:384,t:1511889205732};","{x:1350,y:384,t:1511889205749};","{x:1350,y:385,t:1511889205765};","{x:1348,y:385,t:1511889207167};","{x:1345,y:387,t:1511889207182};","{x:1341,y:388,t:1511889207200};","{x:1339,y:389,t:1511889207216};","{x:1336,y:390,t:1511889207233};","{x:1335,y:391,t:1511889207250};","{x:1335,y:398,t:1511889207266};","{x:1337,y:406,t:1511889207283};","{x:1342,y:413,t:1511889207300};","{x:1347,y:420,t:1511889207316};","{x:1351,y:425,t:1511889207333};","{x:1359,y:433,t:1511889207350};","{x:1367,y:436,t:1511889207366};","{x:1374,y:439,t:1511889207383};","{x:1377,y:442,t:1511889207400};","{x:1379,y:443,t:1511889207416};","{x:1379,y:441,t:1511889207543};","{x:1379,y:439,t:1511889207558};","{x:1379,y:438,t:1511889207566};","{x:1379,y:437,t:1511889207589};","{x:1379,y:436,t:1511889207599};","{x:1379,y:435,t:1511889207637};","{x:1379,y:434,t:1511889207834};","{x:1379,y:433,t:1511889207901};","{x:1379,y:432,t:1511889207918};","{x:1379,y:431,t:1511889207934};","{x:1379,y:430,t:1511889207951};","{x:1379,y:429,t:1511889207981};","{x:1379,y:428,t:1511889208005};","{x:1379,y:427,t:1511889208018};","{x:1379,y:426,t:1511889208034};","{x:1378,y:426,t:1511889209598};","{x:1377,y:426,t:1511889209981};","{x:1376,y:427,t:1511889209989};","{x:1375,y:429,t:1511889210005};","{x:1374,y:430,t:1511889210181};","{x:1374,y:431,t:1511889212446};","{x:1373,y:432,t:1511889212455};","{x:1372,y:433,t:1511889212471};","{x:1372,y:434,t:1511889212495};","{x:1371,y:436,t:1511889212521};","{x:1370,y:437,t:1511889212621};","{x:1369,y:437,t:1511889212638};","{x:1369,y:438,t:1511889212655};","{x:1368,y:438,t:1511889212671};","{x:1367,y:439,t:1511889212688};","{x:1366,y:440,t:1511889212705};","{x:1363,y:442,t:1511889212722};","{x:1361,y:442,t:1511889212738};","{x:1357,y:445,t:1511889212755};","{x:1352,y:446,t:1511889212773};","{x:1349,y:449,t:1511889212788};","{x:1340,y:452,t:1511889212806};","{x:1328,y:457,t:1511889212822};","{x:1303,y:466,t:1511889212839};","{x:1235,y:490,t:1511889212856};","{x:1111,y:521,t:1511889212873};","{x:970,y:565,t:1511889212889};","{x:832,y:606,t:1511889212906};","{x:702,y:642,t:1511889212923};","{x:578,y:671,t:1511889212938};","{x:487,y:683,t:1511889212955};","{x:413,y:692,t:1511889212974};","{x:399,y:692,t:1511889212988};","{x:378,y:692,t:1511889213005};","{x:373,y:690,t:1511889213022};","{x:368,y:686,t:1511889213038};","{x:366,y:684,t:1511889213055};","{x:365,y:683,t:1511889213072};","{x:364,y:682,t:1511889213088};","{x:364,y:680,t:1511889213105};","{x:368,y:670,t:1511889213122};","{x:382,y:650,t:1511889213138};","{x:397,y:635,t:1511889213155};","{x:419,y:619,t:1511889213173};","{x:439,y:610,t:1511889213189};","{x:458,y:605,t:1511889213205};","{x:471,y:597,t:1511889213222};","{x:484,y:590,t:1511889213240};","{x:493,y:586,t:1511889213255};","{x:498,y:583,t:1511889213273};","{x:500,y:582,t:1511889213289};","{x:504,y:582,t:1511889213365};","{x:507,y:583,t:1511889213373};","{x:526,y:591,t:1511889213389};","{x:540,y:597,t:1511889213405};","{x:553,y:600,t:1511889213422};","{x:564,y:601,t:1511889213439};","{x:568,y:601,t:1511889213455};","{x:571,y:601,t:1511889213472};","{x:573,y:601,t:1511889213489};","{x:575,y:600,t:1511889213509};","{x:577,y:600,t:1511889213522};","{x:578,y:598,t:1511889213539};","{x:579,y:598,t:1511889213558};","{x:580,y:598,t:1511889213750};","{x:581,y:598,t:1511889213766};","{x:582,y:599,t:1511889213822};","{x:584,y:600,t:1511889213839};","{x:585,y:601,t:1511889213856};","{x:587,y:602,t:1511889213872};","{x:590,y:603,t:1511889213890};","{x:591,y:603,t:1511889213910};","{x:593,y:603,t:1511889214326};","{x:594,y:603,t:1511889214339};","{x:612,y:598,t:1511889214356};","{x:697,y:575,t:1511889214372};","{x:861,y:548,t:1511889214389};","{x:1084,y:520,t:1511889214406};","{x:1357,y:487,t:1511889214423};","{x:1634,y:472,t:1511889214439};","{x:1848,y:463,t:1511889214456};","{x:1919,y:457,t:1511889214473};","{x:1917,y:459,t:1511889214551};","{x:1913,y:460,t:1511889214558};","{x:1904,y:460,t:1511889214575};","{x:1892,y:459,t:1511889214591};","{x:1876,y:457,t:1511889214607};","{x:1846,y:450,t:1511889214624};","{x:1793,y:442,t:1511889214641};","{x:1723,y:430,t:1511889214657};","{x:1659,y:421,t:1511889214675};","{x:1600,y:413,t:1511889214691};","{x:1561,y:409,t:1511889214707};","{x:1522,y:404,t:1511889214724};","{x:1489,y:397,t:1511889214741};","{x:1464,y:394,t:1511889214758};","{x:1461,y:394,t:1511889214774};","{x:1458,y:394,t:1511889214814};","{x:1457,y:393,t:1511889214824};","{x:1453,y:392,t:1511889214841};","{x:1451,y:392,t:1511889214857};","{x:1449,y:392,t:1511889214894};","{x:1448,y:392,t:1511889214908};","{x:1444,y:395,t:1511889214924};","{x:1433,y:400,t:1511889214941};","{x:1414,y:411,t:1511889214958};","{x:1400,y:419,t:1511889214974};","{x:1388,y:424,t:1511889214991};","{x:1380,y:425,t:1511889215008};","{x:1375,y:427,t:1511889215029};","{x:1366,y:430,t:1511889217608};","{x:1304,y:447,t:1511889217626};","{x:1202,y:477,t:1511889217643};","{x:1080,y:513,t:1511889217660};","{x:931,y:553,t:1511889217676};","{x:790,y:572,t:1511889217693};","{x:630,y:584,t:1511889217709};","{x:571,y:584,t:1511889217726};","{x:529,y:584,t:1511889217743};","{x:503,y:584,t:1511889217760};","{x:488,y:584,t:1511889217776};","{x:482,y:584,t:1511889217793};","{x:480,y:584,t:1511889217810};","{x:474,y:588,t:1511889217826};","{x:474,y:597,t:1511889217843};","{x:474,y:605,t:1511889217860};","{x:474,y:612,t:1511889217876};","{x:473,y:617,t:1511889217893};","{x:467,y:626,t:1511889217910};","{x:463,y:633,t:1511889217926};","{x:462,y:642,t:1511889217943};","{x:456,y:659,t:1511889217960};","{x:450,y:678,t:1511889217976};","{x:440,y:698,t:1511889217993};","{x:427,y:713,t:1511889218010};","{x:414,y:722,t:1511889218026};","{x:408,y:725,t:1511889218043};","{x:402,y:726,t:1511889218060};","{x:396,y:726,t:1511889218077};","{x:389,y:729,t:1511889218093};","{x:382,y:731,t:1511889218110};","{x:375,y:731,t:1511889218127};","{x:367,y:733,t:1511889218143};","{x:361,y:734,t:1511889218160};","{x:359,y:734,t:1511889218177};","{x:358,y:734,t:1511889218193};","{x:358,y:733,t:1511889218238};","{x:356,y:732,t:1511889218246};","{x:356,y:730,t:1511889218260};","{x:356,y:727,t:1511889218278};","{x:357,y:722,t:1511889218294};","{x:357,y:720,t:1511889218310};","{x:359,y:718,t:1511889218327};","{x:361,y:715,t:1511889218344};","{x:368,y:706,t:1511889218360};","{x:378,y:698,t:1511889218377};","{x:384,y:694,t:1511889218394};","{x:389,y:692,t:1511889218411};","{x:391,y:690,t:1511889218427};","{x:392,y:690,t:1511889218444};","{x:393,y:690,t:1511889218470};","{x:393,y:692,t:1511889218695};","{x:393,y:693,t:1511889218718};","{x:393,y:695,t:1511889218758};","{x:393,y:696,t:1511889218775};","{x:392,y:697,t:1511889218782};","{x:392,y:698,t:1511889218794};","{x:392,y:699,t:1511889218823};","{x:392,y:701,t:1511889218886};"],"block":"triangular_scaffolded","hovered":"-D -D ","clicked":[["answer","clicked"],["X ","false"],["C ","false"],["O ","false"],["I ","false"],["J ","false"],["A ","false"],["H ","false"],["F ","false"],["K ","false"],["D ","false"],["U ","false"],["E ","false"],["G ","false"],["B ","false"],["Z ","false"]],"answer":["K"],"orth_correct":0,"correct":1,"axis":"full","impasse":1,"explicit":3,"q":2,"question":"starts","scenario":"acme","condition":"311","session":"golf","graph":"triangular","experiment":"2YP3","subject":"LSRUK","internal_node_id":"0.0-5.0-1.0","time_elapsed":235514,"trial_index":6,"trial_type":"html","url":"../views/src/external/stimulus.html","rt":21148},{"mouseLog":["{x:1911,y:1911,t:0};","{x:392,y:700,t:1511889221127};","{x:404,y:683,t:1511889221135};","{x:430,y:654,t:1511889221149};","{x:497,y:603,t:1511889221162};","{x:579,y:542,t:1511889221179};","{x:659,y:491,t:1511889221196};","{x:723,y:445,t:1511889221212};","{x:771,y:410,t:1511889221229};","{x:796,y:392,t:1511889221245};","{x:793,y:392,t:1511889221310};","{x:792,y:392,t:1511889221318};","{x:790,y:392,t:1511889221334};","{x:789,y:392,t:1511889221346};","{x:787,y:392,t:1511889221362};","{x:783,y:394,t:1511889221379};","{x:779,y:395,t:1511889221396};","{x:776,y:396,t:1511889221413};","{x:774,y:398,t:1511889221429};","{x:767,y:401,t:1511889221446};","{x:759,y:403,t:1511889221464};","{x:750,y:408,t:1511889221480};","{x:739,y:413,t:1511889221497};","{x:733,y:416,t:1511889221513};","{x:724,y:420,t:1511889221529};","{x:719,y:423,t:1511889221546};","{x:716,y:424,t:1511889221563};","{x:712,y:424,t:1511889221579};","{x:708,y:426,t:1511889221596};","{x:706,y:427,t:1511889221613};","{x:705,y:428,t:1511889221629};","{x:703,y:429,t:1511889221646};","{x:702,y:430,t:1511889221663};","{x:702,y:431,t:1511889221686};","{x:700,y:431,t:1511889221696};","{x:698,y:432,t:1511889221714};","{x:698,y:433,t:1511889221730};","{x:696,y:433,t:1511889221747};","{x:695,y:434,t:1511889221763};","{x:694,y:434,t:1511889221779};","{x:693,y:434,t:1511889221796};","{x:692,y:435,t:1511889221813};","{x:691,y:435,t:1511889221838};","{x:691,y:436,t:1511889221846};","{x:690,y:436,t:1511889221863};","{x:690,y:437,t:1511889222438};","{x:691,y:439,t:1511889222462};","{x:692,y:439,t:1511889222470};","{x:694,y:439,t:1511889222480};","{x:697,y:440,t:1511889222497};","{x:699,y:441,t:1511889222513};","{x:704,y:443,t:1511889222530};","{x:711,y:444,t:1511889222547};","{x:723,y:447,t:1511889222563};","{x:739,y:450,t:1511889222580};","{x:767,y:458,t:1511889222597};","{x:785,y:460,t:1511889222613};","{x:802,y:464,t:1511889222630};","{x:817,y:468,t:1511889222647};","{x:828,y:471,t:1511889222663};","{x:838,y:475,t:1511889222680};","{x:845,y:478,t:1511889222697};","{x:852,y:480,t:1511889222713};","{x:859,y:485,t:1511889222730};","{x:869,y:492,t:1511889222747};","{x:883,y:504,t:1511889222763};","{x:900,y:516,t:1511889222780};","{x:925,y:533,t:1511889222798};","{x:994,y:574,t:1511889222814};","{x:1039,y:596,t:1511889222831};","{x:1068,y:608,t:1511889222848};","{x:1092,y:617,t:1511889222865};","{x:1113,y:625,t:1511889222881};","{x:1131,y:631,t:1511889222898};","{x:1150,y:636,t:1511889222914};","{x:1168,y:639,t:1511889222931};","{x:1180,y:640,t:1511889222948};","{x:1188,y:642,t:1511889222965};","{x:1193,y:644,t:1511889222981};","{x:1196,y:645,t:1511889222998};","{x:1197,y:645,t:1511889223015};","{x:1196,y:645,t:1511889223086};","{x:1194,y:645,t:1511889223098};","{x:1193,y:645,t:1511889223115};","{x:1191,y:645,t:1511889223131};","{x:1190,y:645,t:1511889223148};","{x:1189,y:645,t:1511889223407};","{x:1188,y:645,t:1511889223422};","{x:1187,y:645,t:1511889223432};","{x:1183,y:649,t:1511889223448};","{x:1179,y:657,t:1511889223465};","{x:1172,y:668,t:1511889223482};","{x:1161,y:682,t:1511889223497};","{x:1144,y:702,t:1511889223515};","{x:1126,y:721,t:1511889223532};","{x:1103,y:742,t:1511889223548};","{x:1071,y:767,t:1511889223565};","{x:1020,y:802,t:1511889223582};","{x:1009,y:809,t:1511889223598};","{x:980,y:826,t:1511889223623};","{x:973,y:830,t:1511889223631};","{x:969,y:833,t:1511889223649};","{x:968,y:833,t:1511889223664};","{x:972,y:831,t:1511889223926};","{x:983,y:823,t:1511889223949};","{x:987,y:820,t:1511889223964};","{x:990,y:818,t:1511889223981};","{x:991,y:817,t:1511889223997};","{x:992,y:816,t:1511889224014};","{x:993,y:816,t:1511889224045};","{x:992,y:816,t:1511889224199};","{x:983,y:821,t:1511889224214};","{x:975,y:823,t:1511889224232};","{x:970,y:826,t:1511889224248};","{x:969,y:826,t:1511889224270};","{x:968,y:827,t:1511889224646};","{x:968,y:828,t:1511889224664};","{x:967,y:828,t:1511889224681};","{x:967,y:829,t:1511889224698};","{x:967,y:831,t:1511889224714};","{x:966,y:832,t:1511889224731};","{x:965,y:833,t:1511889224766};","{x:964,y:834,t:1511889224782};","{x:965,y:834,t:1511889225086};","{x:968,y:832,t:1511889225097};","{x:974,y:828,t:1511889225121};","{x:977,y:827,t:1511889225130};","{x:977,y:826,t:1511889225148};","{x:981,y:826,t:1511889226643};","{x:1038,y:810,t:1511889226665};","{x:1105,y:791,t:1511889226682};","{x:1168,y:774,t:1511889226700};","{x:1235,y:754,t:1511889226717};","{x:1260,y:749,t:1511889226733};","{x:1276,y:744,t:1511889226750};","{x:1279,y:744,t:1511889226767};","{x:1279,y:743,t:1511889226910};","{x:1275,y:741,t:1511889226942};","{x:1268,y:741,t:1511889226950};","{x:1251,y:741,t:1511889226967};","{x:1232,y:741,t:1511889226983};","{x:1208,y:742,t:1511889227000};","{x:1188,y:745,t:1511889227017};","{x:1181,y:746,t:1511889227033};","{x:1176,y:747,t:1511889227050};","{x:1173,y:748,t:1511889227067};","{x:1171,y:749,t:1511889227084};","{x:1170,y:749,t:1511889227110};","{x:1169,y:750,t:1511889227118};","{x:1168,y:751,t:1511889227134};","{x:1168,y:752,t:1511889227151};","{x:1167,y:752,t:1511889227198};","{x:1166,y:753,t:1511889227206};","{x:1165,y:753,t:1511889227222};","{x:1164,y:753,t:1511889227235};","{x:1162,y:756,t:1511889227251};","{x:1157,y:758,t:1511889227268};","{x:1151,y:761,t:1511889227285};","{x:1147,y:762,t:1511889227308};","{x:1146,y:763,t:1511889227317};","{x:1145,y:763,t:1511889227405};","{x:1144,y:763,t:1511889227614};","{x:1142,y:763,t:1511889227630};","{x:1141,y:763,t:1511889228638};","{x:1140,y:765,t:1511889228661};","{x:1138,y:765,t:1511889228669};","{x:1134,y:767,t:1511889228686};","{x:1130,y:768,t:1511889228702};","{x:1123,y:771,t:1511889228718};","{x:1120,y:771,t:1511889228735};","{x:1116,y:772,t:1511889228751};","{x:1113,y:774,t:1511889228768};","{x:1108,y:774,t:1511889228785};","{x:1104,y:776,t:1511889228802};","{x:1100,y:777,t:1511889228818};","{x:1095,y:777,t:1511889228835};","{x:1090,y:778,t:1511889228852};","{x:1085,y:779,t:1511889228868};","{x:1073,y:782,t:1511889228885};","{x:1063,y:786,t:1511889228902};","{x:1057,y:787,t:1511889228918};","{x:1055,y:788,t:1511889228935};","{x:1053,y:790,t:1511889228952};","{x:1051,y:791,t:1511889228968};","{x:1049,y:792,t:1511889228985};","{x:1047,y:794,t:1511889229002};","{x:1045,y:796,t:1511889229018};","{x:1040,y:799,t:1511889229035};","{x:1037,y:802,t:1511889229052};","{x:1036,y:803,t:1511889229068};","{x:1033,y:804,t:1511889229085};","{x:1031,y:805,t:1511889229102};","{x:1024,y:805,t:1511889229119};","{x:1011,y:809,t:1511889229136};","{x:993,y:814,t:1511889229153};","{x:972,y:819,t:1511889229169};","{x:954,y:825,t:1511889229186};","{x:943,y:829,t:1511889229203};","{x:934,y:834,t:1511889229219};","{x:931,y:835,t:1511889229236};","{x:929,y:836,t:1511889229252};","{x:928,y:837,t:1511889229285};","{x:938,y:834,t:1511889229382};","{x:947,y:830,t:1511889229390};","{x:959,y:825,t:1511889229403};","{x:983,y:819,t:1511889229419};","{x:1000,y:815,t:1511889229435};","{x:1009,y:815,t:1511889229452};","{x:1012,y:815,t:1511889229469};","{x:1013,y:815,t:1511889229517};","{x:1011,y:817,t:1511889229525};","{x:1009,y:817,t:1511889229535};","{x:1005,y:820,t:1511889229552};","{x:1003,y:820,t:1511889229569};","{x:1000,y:821,t:1511889229585};","{x:994,y:824,t:1511889229602};","{x:989,y:825,t:1511889229619};","{x:984,y:827,t:1511889229635};","{x:979,y:828,t:1511889229657};","{x:976,y:829,t:1511889229669};","{x:974,y:830,t:1511889229685};","{x:972,y:831,t:1511889229702};","{x:971,y:831,t:1511889230246};","{x:968,y:831,t:1511889230258};","{x:959,y:828,t:1511889230269};","{x:942,y:818,t:1511889230286};","{x:907,y:804,t:1511889230303};","{x:851,y:781,t:1511889230319};","{x:777,y:751,t:1511889230336};","{x:678,y:711,t:1511889230353};","{x:563,y:660,t:1511889230369};","{x:456,y:621,t:1511889230386};","{x:384,y:599,t:1511889230403};","{x:354,y:590,t:1511889230419};","{x:343,y:589,t:1511889230436};","{x:340,y:588,t:1511889230453};","{x:341,y:588,t:1511889230590};","{x:343,y:588,t:1511889230603};","{x:348,y:589,t:1511889230620};","{x:356,y:591,t:1511889230636};","{x:369,y:596,t:1511889230654};","{x:378,y:600,t:1511889230670};","{x:387,y:605,t:1511889230686};","{x:392,y:607,t:1511889230704};","{x:387,y:607,t:1511889230774};","{x:383,y:607,t:1511889230787};","{x:370,y:606,t:1511889230803};","{x:355,y:606,t:1511889230821};","{x:341,y:605,t:1511889230837};","{x:333,y:603,t:1511889230853};","{x:331,y:603,t:1511889230871};","{x:330,y:602,t:1511889230887};","{x:326,y:602,t:1511889230903};","{x:322,y:602,t:1511889230920};","{x:316,y:603,t:1511889230938};","{x:306,y:605,t:1511889230953};","{x:299,y:607,t:1511889230970};","{x:290,y:609,t:1511889230986};","{x:277,y:612,t:1511889231003};","{x:261,y:612,t:1511889231020};","{x:240,y:612,t:1511889231037};","{x:233,y:612,t:1511889231053};","{x:230,y:612,t:1511889231070};","{x:229,y:612,t:1511889231117};","{x:229,y:611,t:1511889231190};","{x:228,y:610,t:1511889231204};","{x:227,y:610,t:1511889231220};","{x:226,y:609,t:1511889231237};","{x:226,y:608,t:1511889231269};","{x:226,y:607,t:1511889231277};","{x:226,y:606,t:1511889231287};","{x:226,y:605,t:1511889231309};","{x:226,y:604,t:1511889231320};","{x:226,y:602,t:1511889231337};","{x:226,y:599,t:1511889231353};","{x:226,y:597,t:1511889231370};","{x:229,y:600,t:1511889231653};","{x:232,y:604,t:1511889231661};","{x:236,y:608,t:1511889231670};","{x:243,y:616,t:1511889231687};","{x:247,y:620,t:1511889231704};","{x:255,y:628,t:1511889231720};","{x:266,y:637,t:1511889231737};","{x:276,y:647,t:1511889231754};","{x:285,y:656,t:1511889231771};","{x:289,y:659,t:1511889231787};","{x:291,y:661,t:1511889231804};","{x:291,y:662,t:1511889231885};","{x:289,y:662,t:1511889231893};","{x:285,y:662,t:1511889231904};","{x:274,y:657,t:1511889231921};","{x:263,y:650,t:1511889231937};","{x:245,y:640,t:1511889231954};","{x:233,y:632,t:1511889231971};","{x:220,y:618,t:1511889231988};","{x:209,y:603,t:1511889232005};","{x:202,y:595,t:1511889232021};","{x:200,y:594,t:1511889232038};","{x:200,y:593,t:1511889232166};","{x:201,y:593,t:1511889232174};","{x:202,y:593,t:1511889232190};","{x:205,y:593,t:1511889232206};","{x:206,y:593,t:1511889232255};","{x:208,y:595,t:1511889232272};","{x:213,y:600,t:1511889232289};","{x:214,y:602,t:1511889232305};","{x:214,y:603,t:1511889232342};","{x:215,y:603,t:1511889232358};","{x:215,y:604,t:1511889232372};","{x:215,y:605,t:1511889232447};","{x:216,y:606,t:1511889232470};","{x:218,y:608,t:1511889232678};","{x:223,y:608,t:1511889232689};","{x:235,y:616,t:1511889232706};","{x:247,y:622,t:1511889232722};","{x:254,y:624,t:1511889232739};","{x:273,y:638,t:1511889232756};","{x:314,y:660,t:1511889232772};","{x:344,y:676,t:1511889232789};","{x:367,y:685,t:1511889232806};","{x:373,y:687,t:1511889232822};","{x:374,y:687,t:1511889232839};","{x:374,y:688,t:1511889232856};","{x:374,y:691,t:1511889232873};","{x:375,y:695,t:1511889232889};","{x:381,y:701,t:1511889232906};","{x:387,y:706,t:1511889232922};","{x:403,y:714,t:1511889232939};","{x:423,y:720,t:1511889232956};","{x:440,y:726,t:1511889232972};","{x:450,y:727,t:1511889232989};","{x:454,y:729,t:1511889233006};","{x:453,y:729,t:1511889233191};","{x:448,y:725,t:1511889233206};","{x:441,y:721,t:1511889233223};","{x:436,y:716,t:1511889233239};","{x:435,y:716,t:1511889233256};","{x:432,y:713,t:1511889233273};","{x:430,y:712,t:1511889233289};","{x:430,y:711,t:1511889233437};","{x:428,y:710,t:1511889233447};","{x:424,y:706,t:1511889233456};","{x:422,y:704,t:1511889233473};"],"block":"triangular_scaffolded","hovered":"-C -C -C -C -F -C -C ","clicked":[["answer","clicked"],["X ","false"],["C ","false"],["O ","false"],["I ","false"],["J ","false"],["A ","false"],["H ","false"],["F ","false"],["K ","false"],["D ","false"],["U ","false"],["E ","false"],["G ","false"],["B ","false"],["Z ","false"]],"answer":["F"],"orth_correct":0,"correct":1,"axis":"full","impasse":1,"explicit":3,"q":3,"question":"meets","scenario":"acme","condition":"311","session":"golf","graph":"triangular","experiment":"2YP3","subject":"LSRUK","internal_node_id":"0.0-5.0-2.0","time_elapsed":249971,"trial_index":7,"trial_type":"html","url":"../views/src/external/stimulus.html","rt":13184},{"mouseLog":["{x:1911,y:1911,t:0};","{x:425,y:704,t:1511889236079};","{x:430,y:704,t:1511889236090};","{x:438,y:704,t:1511889236107};","{x:447,y:704,t:1511889236123};","{x:452,y:706,t:1511889236139};","{x:458,y:708,t:1511889236156};","{x:462,y:708,t:1511889236173};","{x:467,y:710,t:1511889236190};","{x:473,y:710,t:1511889236209};","{x:476,y:711,t:1511889236225};","{x:477,y:711,t:1511889236242};","{x:479,y:711,t:1511889236258};","{x:480,y:711,t:1511889236278};","{x:481,y:711,t:1511889236294};","{x:482,y:711,t:1511889236318};","{x:483,y:711,t:1511889236326};","{x:486,y:711,t:1511889236342};","{x:490,y:712,t:1511889236359};","{x:497,y:713,t:1511889236375};","{x:501,y:714,t:1511889236392};","{x:505,y:714,t:1511889236409};","{x:510,y:715,t:1511889236425};","{x:513,y:715,t:1511889236442};","{x:518,y:716,t:1511889236460};","{x:522,y:716,t:1511889236475};","{x:524,y:716,t:1511889236492};","{x:527,y:716,t:1511889236509};","{x:530,y:716,t:1511889236526};","{x:537,y:716,t:1511889236542};","{x:541,y:716,t:1511889236559};","{x:547,y:716,t:1511889236576};","{x:556,y:717,t:1511889236592};","{x:570,y:717,t:1511889236609};","{x:585,y:717,t:1511889236626};","{x:599,y:717,t:1511889236642};","{x:611,y:717,t:1511889236659};","{x:619,y:718,t:1511889236676};","{x:625,y:718,t:1511889236692};","{x:631,y:718,t:1511889236709};","{x:641,y:719,t:1511889236726};","{x:653,y:722,t:1511889236743};","{x:670,y:725,t:1511889236759};","{x:691,y:731,t:1511889236776};","{x:714,y:739,t:1511889236793};","{x:750,y:748,t:1511889236809};","{x:812,y:769,t:1511889236826};","{x:903,y:794,t:1511889236843};","{x:1015,y:837,t:1511889236859};","{x:1135,y:875,t:1511889236876};","{x:1253,y:906,t:1511889236893};","{x:1353,y:936,t:1511889236909};","{x:1484,y:975,t:1511889236926};","{x:1570,y:1002,t:1511889236943};","{x:1637,y:1023,t:1511889236959};","{x:1685,y:1037,t:1511889236976};","{x:1718,y:1046,t:1511889236993};","{x:1733,y:1051,t:1511889237010};","{x:1748,y:1057,t:1511889237026};","{x:1763,y:1063,t:1511889237043};","{x:1769,y:1066,t:1511889237060};","{x:1772,y:1068,t:1511889237076};","{x:1771,y:1068,t:1511889237110};","{x:1761,y:1067,t:1511889237126};","{x:1752,y:1064,t:1511889237143};","{x:1745,y:1063,t:1511889237160};","{x:1735,y:1062,t:1511889237176};","{x:1721,y:1059,t:1511889237193};","{x:1700,y:1056,t:1511889237210};","{x:1676,y:1050,t:1511889237226};","{x:1649,y:1045,t:1511889237243};","{x:1628,y:1040,t:1511889237260};","{x:1593,y:1030,t:1511889237277};","{x:1553,y:1018,t:1511889237294};","{x:1496,y:998,t:1511889237310};","{x:1429,y:974,t:1511889237327};","{x:1370,y:958,t:1511889237343};","{x:1329,y:946,t:1511889237361};","{x:1297,y:936,t:1511889237377};","{x:1273,y:930,t:1511889237393};","{x:1263,y:927,t:1511889237410};","{x:1261,y:926,t:1511889237427};","{x:1260,y:926,t:1511889237535};","{x:1261,y:925,t:1511889237550};","{x:1263,y:925,t:1511889237561};","{x:1268,y:925,t:1511889237578};","{x:1282,y:927,t:1511889237595};","{x:1303,y:935,t:1511889237611};","{x:1320,y:940,t:1511889237628};","{x:1337,y:946,t:1511889237645};","{x:1346,y:948,t:1511889237661};","{x:1349,y:949,t:1511889237678};","{x:1351,y:950,t:1511889237695};","{x:1352,y:950,t:1511889237726};","{x:1353,y:950,t:1511889237734};","{x:1354,y:950,t:1511889237757};","{x:1356,y:950,t:1511889237765};","{x:1357,y:950,t:1511889237777};","{x:1365,y:952,t:1511889237794};","{x:1372,y:954,t:1511889237811};","{x:1375,y:955,t:1511889237827};","{x:1376,y:955,t:1511889237844};","{x:1376,y:956,t:1511889238007};","{x:1375,y:954,t:1511889238038};","{x:1374,y:953,t:1511889238046};","{x:1373,y:952,t:1511889238062};","{x:1369,y:948,t:1511889238078};","{x:1367,y:946,t:1511889238095};","{x:1366,y:946,t:1511889238143};","{x:1365,y:945,t:1511889238159};","{x:1363,y:944,t:1511889238166};","{x:1362,y:943,t:1511889238179};","{x:1358,y:941,t:1511889238195};","{x:1354,y:938,t:1511889238212};","{x:1350,y:935,t:1511889238229};","{x:1347,y:929,t:1511889238246};","{x:1341,y:922,t:1511889238262};","{x:1336,y:914,t:1511889238278};","{x:1331,y:905,t:1511889238296};","{x:1330,y:901,t:1511889238312};","{x:1326,y:892,t:1511889238329};","{x:1322,y:878,t:1511889238346};","{x:1320,y:862,t:1511889238361};","{x:1316,y:850,t:1511889238378};","{x:1314,y:843,t:1511889238395};","{x:1311,y:834,t:1511889238412};","{x:1307,y:826,t:1511889238428};","{x:1300,y:805,t:1511889238445};","{x:1272,y:752,t:1511889238461};","{x:1253,y:715,t:1511889238478};","{x:1245,y:697,t:1511889238495};","{x:1233,y:675,t:1511889238512};","{x:1217,y:652,t:1511889238528};","{x:1191,y:619,t:1511889238545};","{x:1170,y:592,t:1511889238562};","{x:1160,y:572,t:1511889238578};","{x:1158,y:560,t:1511889238595};","{x:1156,y:549,t:1511889238612};","{x:1151,y:530,t:1511889238628};","{x:1148,y:524,t:1511889238645};","{x:1145,y:516,t:1511889238662};","{x:1145,y:515,t:1511889238680};","{x:1146,y:515,t:1511889238775};","{x:1147,y:515,t:1511889238782};","{x:1149,y:515,t:1511889238796};","{x:1153,y:519,t:1511889238813};","{x:1155,y:525,t:1511889238830};","{x:1156,y:532,t:1511889238846};","{x:1158,y:545,t:1511889238863};","{x:1162,y:556,t:1511889238880};","{x:1165,y:560,t:1511889238897};","{x:1166,y:565,t:1511889238913};","{x:1166,y:566,t:1511889239039};","{x:1167,y:567,t:1511889239046};","{x:1168,y:568,t:1511889239063};","{x:1169,y:570,t:1511889239080};","{x:1170,y:570,t:1511889239097};","{x:1171,y:570,t:1511889239167};","{x:1172,y:571,t:1511889239182};","{x:1174,y:571,t:1511889239367};","{x:1175,y:572,t:1511889239380};","{x:1176,y:572,t:1511889239479};","{x:1179,y:572,t:1511889239486};","{x:1180,y:571,t:1511889239497};","{x:1182,y:569,t:1511889239514};","{x:1183,y:568,t:1511889239532};","{x:1183,y:567,t:1511889239726};","{x:1183,y:566,t:1511889239742};","{x:1182,y:566,t:1511889239758};","{x:1182,y:564,t:1511889239896};","{x:1178,y:557,t:1511889239931};","{x:1177,y:556,t:1511889239945};","{x:1177,y:555,t:1511889239973};","{x:1176,y:554,t:1511889239981};","{x:1175,y:553,t:1511889239997};","{x:1175,y:552,t:1511889240295};","{x:1172,y:554,t:1511889240311};","{x:1171,y:557,t:1511889240329};","{x:1169,y:559,t:1511889240346};","{x:1169,y:560,t:1511889240366};","{x:1168,y:560,t:1511889240382};","{x:1168,y:561,t:1511889240599};","{x:1167,y:564,t:1511889240613};","{x:1166,y:566,t:1511889240629};","{x:1164,y:570,t:1511889240646};","{x:1164,y:569,t:1511889241087};","{x:1164,y:568,t:1511889241096};","{x:1164,y:567,t:1511889241113};","{x:1164,y:564,t:1511889241130};","{x:1164,y:561,t:1511889241146};","{x:1164,y:555,t:1511889241163};","{x:1165,y:554,t:1511889241180};","{x:1166,y:554,t:1511889241214};","{x:1167,y:554,t:1511889241238};","{x:1168,y:554,t:1511889241254};","{x:1168,y:553,t:1511889241270};","{x:1170,y:553,t:1511889241286};","{x:1171,y:553,t:1511889241296};","{x:1172,y:553,t:1511889241313};","{x:1173,y:553,t:1511889241382};","{x:1174,y:553,t:1511889241398};","{x:1174,y:554,t:1511889241412};","{x:1174,y:555,t:1511889241453};","{x:1174,y:557,t:1511889241462};","{x:1174,y:559,t:1511889241481};","{x:1174,y:562,t:1511889241496};","{x:1174,y:563,t:1511889241512};","{x:1171,y:564,t:1511889242094};","{x:1150,y:568,t:1511889242129};","{x:1137,y:571,t:1511889242146};","{x:1128,y:574,t:1511889242163};","{x:1119,y:576,t:1511889242179};","{x:1106,y:581,t:1511889242196};","{x:1079,y:588,t:1511889242213};","{x:1054,y:595,t:1511889242229};","{x:1013,y:609,t:1511889242246};","{x:952,y:626,t:1511889242263};","{x:857,y:641,t:1511889242280};","{x:768,y:658,t:1511889242296};","{x:687,y:681,t:1511889242313};","{x:640,y:695,t:1511889242330};","{x:621,y:696,t:1511889242346};","{x:612,y:696,t:1511889242363};","{x:608,y:696,t:1511889242380};","{x:603,y:695,t:1511889242396};","{x:597,y:693,t:1511889242413};","{x:591,y:692,t:1511889242430};","{x:578,y:690,t:1511889242446};","{x:563,y:689,t:1511889242463};","{x:548,y:689,t:1511889242480};","{x:534,y:689,t:1511889242496};","{x:522,y:689,t:1511889242513};","{x:506,y:689,t:1511889242530};","{x:483,y:688,t:1511889242546};","{x:457,y:684,t:1511889242563};","{x:436,y:680,t:1511889242580};","{x:428,y:679,t:1511889242597};","{x:420,y:678,t:1511889242614};","{x:414,y:675,t:1511889242630};","{x:408,y:670,t:1511889242646};","{x:400,y:662,t:1511889242663};","{x:389,y:648,t:1511889242681};","{x:383,y:641,t:1511889242697};","{x:376,y:636,t:1511889242713};","{x:370,y:631,t:1511889242730};","{x:364,y:624,t:1511889242747};","{x:361,y:620,t:1511889242764};","{x:360,y:617,t:1511889242781};","{x:359,y:617,t:1511889242830};","{x:356,y:616,t:1511889242847};","{x:352,y:615,t:1511889242863};","{x:348,y:615,t:1511889242880};","{x:344,y:614,t:1511889242897};","{x:341,y:612,t:1511889242913};","{x:334,y:612,t:1511889242930};","{x:318,y:608,t:1511889242948};","{x:300,y:606,t:1511889242963};","{x:291,y:602,t:1511889242980};","{x:289,y:602,t:1511889242997};","{x:288,y:600,t:1511889243013};","{x:287,y:600,t:1511889243045};","{x:287,y:599,t:1511889243069};","{x:287,y:598,t:1511889243174};","{x:287,y:597,t:1511889243182};","{x:289,y:597,t:1511889243198};","{x:292,y:597,t:1511889243214};","{x:294,y:597,t:1511889243230};","{x:294,y:598,t:1511889243334};","{x:295,y:598,t:1511889243348};","{x:297,y:600,t:1511889243364};","{x:299,y:600,t:1511889243380};","{x:303,y:602,t:1511889243398};","{x:306,y:604,t:1511889243414};","{x:307,y:605,t:1511889243431};","{x:309,y:605,t:1511889243447};","{x:310,y:605,t:1511889243470};","{x:310,y:606,t:1511889243550};","{x:311,y:606,t:1511889243566};","{x:312,y:606,t:1511889243574};","{x:313,y:607,t:1511889243709};","{x:317,y:610,t:1511889243717};","{x:324,y:616,t:1511889243731};","{x:341,y:638,t:1511889243747};","{x:363,y:666,t:1511889243764};","{x:383,y:685,t:1511889243781};","{x:393,y:692,t:1511889243797};","{x:401,y:700,t:1511889243814};","{x:403,y:705,t:1511889243831};","{x:404,y:706,t:1511889243847};","{x:404,y:705,t:1511889244214};","{x:404,y:702,t:1511889244231};","{x:404,y:701,t:1511889244248};","{x:404,y:700,t:1511889244390};","{x:404,y:701,t:1511889244430};","{x:404,y:702,t:1511889244486};","{x:404,y:703,t:1511889244498};","{x:404,y:704,t:1511889244518};","{x:404,y:706,t:1511889244534};","{x:404,y:707,t:1511889244548};","{x:404,y:710,t:1511889244565};","{x:404,y:711,t:1511889244581};","{x:404,y:712,t:1511889244646};","{x:404,y:713,t:1511889244678};","{x:405,y:713,t:1511889244698};","{x:405,y:713,t:1511889244758};"],"block":"triangular_scaffolded","hovered":"-H -H -H -H ","clicked":[["answer","clicked"],["X ","false"],["C ","false"],["O ","false"],["I ","false"],["J ","false"],["A ","false"],["H ","false"],["F ","false"],["K ","false"],["D ","false"],["U ","false"],["E ","false"],["G ","false"],["B ","false"],["Z ","false"]],"answer":["H"],"orth_correct":0,"correct":1,"axis":"full","impasse":1,"explicit":3,"q":4,"question":"endtime","scenario":"acme","condition":"311","session":"golf","graph":"triangular","experiment":"2YP3","subject":"LSRUK","internal_node_id":"0.0-5.0-3.0","time_elapsed":261282,"trial_index":8,"trial_type":"html","url":"../views/src/external/stimulus.html","rt":10036},{"mouseLog":["{x:1911,y:1911,t:0};","{x:406,y:713,t:1511889247297};","{x:407,y:713,t:1511889247305};","{x:409,y:710,t:1511889247322};","{x:415,y:709,t:1511889247338};","{x:418,y:709,t:1511889247355};","{x:423,y:706,t:1511889247374};","{x:428,y:705,t:1511889247389};","{x:437,y:705,t:1511889247405};","{x:452,y:705,t:1511889247423};","{x:476,y:705,t:1511889247440};","{x:525,y:705,t:1511889247454};","{x:592,y:705,t:1511889247470};","{x:669,y:705,t:1511889247487};","{x:736,y:705,t:1511889247503};","{x:864,y:705,t:1511889247521};","{x:975,y:705,t:1511889247537};","{x:1111,y:703,t:1511889247554};","{x:1277,y:703,t:1511889247571};","{x:1483,y:725,t:1511889247587};","{x:1730,y:775,t:1511889247604};","{x:1919,y:858,t:1511889247621};","{x:1919,y:945,t:1511889247638};","{x:1919,y:1023,t:1511889247653};","{x:1919,y:1072,t:1511889247670};","{x:1919,y:1099,t:1511889247688};","{x:1919,y:1118,t:1511889247704};","{x:1919,y:1131,t:1511889247721};","{x:1919,y:1132,t:1511889247737};","{x:1914,y:1132,t:1511889247769};","{x:1910,y:1132,t:1511889247777};","{x:1901,y:1132,t:1511889247788};","{x:1886,y:1131,t:1511889247804};","{x:1874,y:1131,t:1511889247820};","{x:1866,y:1131,t:1511889247837};","{x:1859,y:1131,t:1511889247854};","{x:1855,y:1130,t:1511889247870};","{x:1851,y:1130,t:1511889247888};","{x:1847,y:1130,t:1511889247904};","{x:1844,y:1130,t:1511889247920};","{x:1843,y:1128,t:1511889247937};","{x:1841,y:1128,t:1511889247977};","{x:1840,y:1128,t:1511889247987};","{x:1837,y:1128,t:1511889248004};","{x:1834,y:1126,t:1511889248020};","{x:1830,y:1125,t:1511889248037};","{x:1828,y:1124,t:1511889248054};","{x:1825,y:1123,t:1511889248070};","{x:1821,y:1121,t:1511889248087};","{x:1816,y:1119,t:1511889248104};","{x:1806,y:1116,t:1511889248120};","{x:1801,y:1115,t:1511889248137};","{x:1793,y:1112,t:1511889248154};","{x:1788,y:1111,t:1511889248171};","{x:1784,y:1109,t:1511889248187};","{x:1779,y:1108,t:1511889248204};","{x:1777,y:1108,t:1511889248220};","{x:1773,y:1107,t:1511889248237};","{x:1770,y:1106,t:1511889248254};","{x:1768,y:1105,t:1511889248271};","{x:1766,y:1105,t:1511889248287};","{x:1765,y:1105,t:1511889248304};","{x:1763,y:1105,t:1511889248321};","{x:1763,y:1104,t:1511889248337};","{x:1762,y:1104,t:1511889248354};","{x:1761,y:1104,t:1511889248370};","{x:1756,y:1101,t:1511889248953};","{x:1746,y:1095,t:1511889248961};","{x:1733,y:1085,t:1511889248971};","{x:1695,y:1063,t:1511889248988};","{x:1669,y:1055,t:1511889249005};","{x:1650,y:1049,t:1511889249022};","{x:1628,y:1041,t:1511889249039};","{x:1605,y:1032,t:1511889249054};","{x:1565,y:1007,t:1511889249072};","{x:1509,y:980,t:1511889249088};","{x:1493,y:971,t:1511889249105};","{x:1482,y:967,t:1511889249122};","{x:1477,y:965,t:1511889249139};","{x:1467,y:959,t:1511889249155};","{x:1452,y:947,t:1511889249172};","{x:1427,y:927,t:1511889249189};","{x:1396,y:884,t:1511889249205};","{x:1370,y:859,t:1511889249222};","{x:1352,y:849,t:1511889249239};","{x:1329,y:839,t:1511889249256};","{x:1308,y:824,t:1511889249272};","{x:1268,y:796,t:1511889249289};","{x:1254,y:784,t:1511889249305};","{x:1250,y:780,t:1511889249322};","{x:1249,y:779,t:1511889249786};","{x:1247,y:776,t:1511889249794};","{x:1244,y:772,t:1511889249807};","{x:1235,y:754,t:1511889249824};","{x:1227,y:734,t:1511889249840};","{x:1219,y:716,t:1511889249857};","{x:1208,y:697,t:1511889249873};","{x:1202,y:685,t:1511889249890};","{x:1191,y:673,t:1511889249907};","{x:1180,y:655,t:1511889249924};","{x:1169,y:635,t:1511889249940};","{x:1159,y:617,t:1511889249957};","{x:1155,y:607,t:1511889249975};","{x:1153,y:597,t:1511889249990};","{x:1151,y:588,t:1511889250007};","{x:1146,y:576,t:1511889250024};","{x:1141,y:561,t:1511889250040};","{x:1133,y:542,t:1511889250057};","{x:1120,y:512,t:1511889250074};","{x:1115,y:502,t:1511889250090};","{x:1109,y:487,t:1511889250107};","{x:1099,y:472,t:1511889250124};","{x:1091,y:460,t:1511889250140};","{x:1083,y:448,t:1511889250157};","{x:1079,y:437,t:1511889250175};","{x:1077,y:429,t:1511889250190};","{x:1073,y:421,t:1511889250207};","{x:1070,y:418,t:1511889250224};","{x:1069,y:416,t:1511889250241};","{x:1067,y:416,t:1511889250282};","{x:1064,y:420,t:1511889250298};","{x:1061,y:426,t:1511889250307};","{x:1056,y:438,t:1511889250324};","{x:1049,y:451,t:1511889250341};","{x:1043,y:461,t:1511889250357};","{x:1040,y:470,t:1511889250375};","{x:1038,y:480,t:1511889250391};","{x:1038,y:489,t:1511889250407};","{x:1037,y:495,t:1511889250424};","{x:1037,y:496,t:1511889250441};","{x:1036,y:497,t:1511889250457};","{x:1036,y:507,t:1511889250474};","{x:1039,y:520,t:1511889250491};","{x:1048,y:537,t:1511889250507};","{x:1054,y:546,t:1511889250524};","{x:1054,y:547,t:1511889250541};","{x:1055,y:548,t:1511889250557};","{x:1056,y:548,t:1511889250626};","{x:1057,y:547,t:1511889250642};","{x:1058,y:547,t:1511889250657};","{x:1061,y:544,t:1511889250674};","{x:1063,y:541,t:1511889250691};","{x:1064,y:537,t:1511889250708};","{x:1064,y:528,t:1511889250724};","{x:1064,y:521,t:1511889250741};","{x:1066,y:518,t:1511889250758};","{x:1067,y:517,t:1511889250774};","{x:1068,y:516,t:1511889250791};","{x:1068,y:515,t:1511889250818};","{x:1068,y:514,t:1511889250834};","{x:1068,y:512,t:1511889250841};","{x:1068,y:509,t:1511889250858};","{x:1068,y:507,t:1511889250874};","{x:1068,y:506,t:1511889250891};","{x:1068,y:505,t:1511889250908};","{x:1068,y:504,t:1511889250970};","{x:1068,y:500,t:1511889250978};","{x:1068,y:497,t:1511889250991};","{x:1068,y:496,t:1511889251008};","{x:1068,y:495,t:1511889251026};","{x:1068,y:494,t:1511889251090};","{x:1068,y:491,t:1511889251108};","{x:1068,y:490,t:1511889251124};","{x:1068,y:489,t:1511889251178};","{x:1067,y:488,t:1511889251191};","{x:1065,y:482,t:1511889251208};","{x:1063,y:479,t:1511889251225};","{x:1063,y:478,t:1511889251241};","{x:1062,y:478,t:1511889251354};","{x:1061,y:480,t:1511889251370};","{x:1060,y:480,t:1511889251394};","{x:1060,y:481,t:1511889251426};","{x:1060,y:482,t:1511889251442};","{x:1059,y:486,t:1511889251457};","{x:1059,y:490,t:1511889251475};","{x:1059,y:493,t:1511889251491};","{x:1060,y:498,t:1511889251508};","{x:1060,y:499,t:1511889251525};","{x:1061,y:500,t:1511889251541};","{x:1063,y:502,t:1511889251562};","{x:1064,y:503,t:1511889251585};","{x:1065,y:503,t:1511889251617};","{x:1066,y:503,t:1511889251986};","{x:1068,y:503,t:1511889251994};","{x:1070,y:502,t:1511889252008};","{x:1073,y:502,t:1511889252025};","{x:1076,y:502,t:1511889252049};","{x:1078,y:502,t:1511889252072};","{x:1079,y:502,t:1511889252075};","{x:1080,y:500,t:1511889252487};","{x:1075,y:493,t:1511889252508};","{x:1075,y:492,t:1511889252528};","{x:1075,y:491,t:1511889252545};","{x:1074,y:491,t:1511889252570};","{x:1074,y:490,t:1511889252576};","{x:1075,y:490,t:1511889252946};","{x:1076,y:490,t:1511889252959};","{x:1078,y:490,t:1511889252976};","{x:1081,y:490,t:1511889252993};","{x:1081,y:491,t:1511889253026};","{x:1083,y:493,t:1511889253043};","{x:1085,y:497,t:1511889253059};","{x:1085,y:499,t:1511889253076};","{x:1085,y:500,t:1511889253093};","{x:1083,y:500,t:1511889253330};","{x:1082,y:499,t:1511889253343};","{x:1078,y:495,t:1511889253367};","{x:1074,y:492,t:1511889253375};","{x:1070,y:487,t:1511889253393};","{x:1069,y:486,t:1511889253409};","{x:1069,y:485,t:1511889253505};","{x:1069,y:484,t:1511889253521};","{x:1069,y:483,t:1511889253529};","{x:1068,y:482,t:1511889253542};","{x:1067,y:481,t:1511889253559};","{x:1067,y:480,t:1511889253576};","{x:1070,y:480,t:1511889253674};","{x:1073,y:480,t:1511889253681};","{x:1074,y:480,t:1511889253693};","{x:1077,y:480,t:1511889253709};","{x:1078,y:481,t:1511889253737};","{x:1080,y:483,t:1511889253745};","{x:1083,y:486,t:1511889253759};","{x:1088,y:495,t:1511889253776};","{x:1092,y:503,t:1511889253793};","{x:1092,y:504,t:1511889253809};","{x:1091,y:504,t:1511889253994};","{x:1085,y:502,t:1511889254011};","{x:1082,y:501,t:1511889254027};","{x:1077,y:499,t:1511889254051};","{x:1076,y:498,t:1511889254161};","{x:1075,y:500,t:1511889258577};","{x:1074,y:509,t:1511889258589};","{x:1073,y:518,t:1511889258598};","{x:1069,y:532,t:1511889258614};","{x:1065,y:552,t:1511889258629};","{x:1059,y:574,t:1511889258646};","{x:1057,y:597,t:1511889258662};","{x:1057,y:626,t:1511889258679};","{x:1057,y:648,t:1511889258696};","{x:1057,y:652,t:1511889258712};","{x:1057,y:654,t:1511889258729};","{x:1057,y:657,t:1511889258746};","{x:1059,y:660,t:1511889258763};","{x:1064,y:670,t:1511889258779};","{x:1066,y:673,t:1511889258796};","{x:1067,y:675,t:1511889258813};","{x:1068,y:676,t:1511889258873};","{x:1069,y:676,t:1511889258905};","{x:1070,y:676,t:1511889258921};","{x:1071,y:672,t:1511889258930};","{x:1074,y:666,t:1511889258946};","{x:1075,y:661,t:1511889258963};","{x:1078,y:658,t:1511889258980};","{x:1078,y:656,t:1511889258997};","{x:1079,y:654,t:1511889259013};","{x:1079,y:653,t:1511889259041};","{x:1079,y:652,t:1511889259049};","{x:1079,y:651,t:1511889259064};","{x:1079,y:650,t:1511889259080};","{x:1079,y:648,t:1511889259097};","{x:1080,y:647,t:1511889259170};","{x:1080,y:645,t:1511889259266};","{x:1080,y:642,t:1511889259281};","{x:1080,y:640,t:1511889259297};","{x:1080,y:639,t:1511889259618};","{x:1079,y:635,t:1511889259633};","{x:1077,y:633,t:1511889259654};","{x:1076,y:632,t:1511889259663};","{x:1076,y:631,t:1511889259680};","{x:1076,y:630,t:1511889259697};","{x:1075,y:630,t:1511889259714};","{x:1075,y:628,t:1511889259730};","{x:1075,y:627,t:1511889259747};","{x:1074,y:627,t:1511889259768};","{x:1074,y:625,t:1511889260152};","{x:1074,y:624,t:1511889260169};","{x:1074,y:621,t:1511889260181};","{x:1074,y:612,t:1511889260197};","{x:1074,y:597,t:1511889260214};","{x:1074,y:574,t:1511889260231};","{x:1072,y:548,t:1511889260247};","{x:1069,y:528,t:1511889260264};","{x:1067,y:519,t:1511889260281};","{x:1066,y:512,t:1511889260297};","{x:1066,y:509,t:1511889260314};","{x:1066,y:507,t:1511889260331};","{x:1066,y:506,t:1511889260352};","{x:1065,y:506,t:1511889260364};","{x:1065,y:504,t:1511889260381};","{x:1065,y:501,t:1511889260398};","{x:1065,y:498,t:1511889260414};","{x:1065,y:495,t:1511889260431};","{x:1065,y:490,t:1511889260447};","{x:1064,y:484,t:1511889260464};","{x:1063,y:480,t:1511889260481};","{x:1063,y:479,t:1511889260498};","{x:1063,y:477,t:1511889260552};","{x:1062,y:476,t:1511889260564};","{x:1061,y:474,t:1511889260581};","{x:1061,y:473,t:1511889260598};","{x:1061,y:472,t:1511889260817};","{x:1060,y:474,t:1511889260831};","{x:1057,y:482,t:1511889260849};","{x:1055,y:491,t:1511889260865};","{x:1054,y:493,t:1511889260881};","{x:1054,y:494,t:1511889260898};","{x:1054,y:496,t:1511889261049};","{x:1057,y:497,t:1511889261106};","{x:1059,y:497,t:1511889261121};","{x:1060,y:497,t:1511889261132};","{x:1061,y:498,t:1511889261149};","{x:1063,y:498,t:1511889261166};","{x:1064,y:498,t:1511889261182};","{x:1065,y:498,t:1511889261465};","{x:1067,y:498,t:1511889261482};","{x:1067,y:500,t:1511889261592};","{x:1063,y:504,t:1511889261600};","{x:1056,y:509,t:1511889261616};","{x:997,y:540,t:1511889261632};","{x:917,y:572,t:1511889261648};","{x:809,y:609,t:1511889261665};","{x:684,y:642,t:1511889261682};","{x:551,y:683,t:1511889261698};","{x:435,y:716,t:1511889261715};","{x:356,y:745,t:1511889261732};","{x:331,y:752,t:1511889261748};","{x:328,y:754,t:1511889261765};","{x:328,y:752,t:1511889261832};","{x:331,y:748,t:1511889261848};","{x:337,y:737,t:1511889261865};","{x:349,y:718,t:1511889261882};","{x:368,y:690,t:1511889261898};","{x:404,y:659,t:1511889261915};","{x:443,y:633,t:1511889261932};","{x:496,y:608,t:1511889261949};","{x:531,y:598,t:1511889261965};","{x:558,y:591,t:1511889261982};","{x:563,y:591,t:1511889261999};","{x:560,y:591,t:1511889262025};","{x:556,y:591,t:1511889262032};","{x:549,y:590,t:1511889262049};","{x:548,y:590,t:1511889262081};","{x:547,y:590,t:1511889262089};","{x:545,y:590,t:1511889262099};","{x:541,y:590,t:1511889262116};","{x:538,y:591,t:1511889262132};","{x:537,y:591,t:1511889262201};","{x:534,y:591,t:1511889262216};","{x:527,y:591,t:1511889262233};","{x:520,y:591,t:1511889262249};","{x:515,y:591,t:1511889262266};","{x:511,y:591,t:1511889262282};","{x:507,y:591,t:1511889262299};","{x:500,y:590,t:1511889262317};","{x:493,y:590,t:1511889262332};","{x:491,y:590,t:1511889262349};","{x:490,y:590,t:1511889262366};","{x:489,y:589,t:1511889262424};","{x:489,y:592,t:1511889262632};","{x:492,y:594,t:1511889262649};","{x:492,y:594,t:1511889262665};","{x:492,y:595,t:1511889262696};","{x:492,y:599,t:1511889262704};","{x:486,y:604,t:1511889262716};","{x:473,y:613,t:1511889262732};","{x:461,y:628,t:1511889262749};","{x:460,y:638,t:1511889262766};","{x:459,y:642,t:1511889262783};","{x:457,y:643,t:1511889262800};","{x:453,y:644,t:1511889262816};","{x:438,y:653,t:1511889262833};","{x:421,y:667,t:1511889262849};","{x:405,y:686,t:1511889262866};","{x:395,y:695,t:1511889262883};","{x:387,y:698,t:1511889262899};","{x:384,y:698,t:1511889262916};","{x:383,y:698,t:1511889262933};","{x:382,y:699,t:1511889262993};","{x:382,y:700,t:1511889263001};","{x:382,y:702,t:1511889263017};","{x:382,y:703,t:1511889263033};","{x:382,y:705,t:1511889263050};","{x:382,y:707,t:1511889263066};","{x:382,y:708,t:1511889263083};","{x:384,y:711,t:1511889263099};","{x:387,y:718,t:1511889263116};","{x:389,y:721,t:1511889263133};","{x:389,y:723,t:1511889263168};","{x:390,y:724,t:1511889263184};","{x:390,y:725,t:1511889263199};","{x:391,y:726,t:1511889263216};","{x:392,y:727,t:1511889263272};","{x:394,y:728,t:1511889263283};","{x:397,y:729,t:1511889263300};","{x:397,y:729,t:1511889263329};"],"block":"triangular_scaffolded","hovered":"-06 PM-05:30-I -I -I -I -I -I -O -O ","clicked":[["answer","clicked"],["X ","false"],["C ","false"],["O ","false"],["I ","false"],["J ","false"],["A ","false"],["H ","false"],["F ","false"],["K ","false"],["D ","false"],["U ","false"],["E ","false"],["G ","false"],["B ","false"],["Z ","false"]],"answer":["O"],"orth_correct":0,"correct":1,"axis":"full","impasse":1,"explicit":3,"q":5,"question":"midpoint","scenario":"acme","condition":"311","session":"golf","graph":"triangular","experiment":"2YP3","subject":"LSRUK","internal_node_id":"0.0-5.0-4.0","time_elapsed":279849,"trial_index":9,"trial_type":"html","url":"../views/src/external/stimulus.html","rt":17290},{"mouseLog":["{x:1911,y:1911,t:0};","{x:398,y:730,t:1511889265345};","{x:402,y:730,t:1511889265352};","{x:416,y:730,t:1511889265368};","{x:441,y:728,t:1511889265384};","{x:470,y:724,t:1511889265401};","{x:508,y:721,t:1511889265418};","{x:544,y:717,t:1511889265435};","{x:579,y:714,t:1511889265451};","{x:625,y:707,t:1511889265468};","{x:659,y:695,t:1511889265485};","{x:687,y:682,t:1511889265501};","{x:707,y:670,t:1511889265518};","{x:733,y:656,t:1511889265535};","{x:763,y:648,t:1511889265551};","{x:820,y:635,t:1511889265569};","{x:871,y:628,t:1511889265585};","{x:935,y:626,t:1511889265602};","{x:1013,y:626,t:1511889265618};","{x:1132,y:626,t:1511889265636};","{x:1273,y:626,t:1511889265652};","{x:1414,y:626,t:1511889265669};","{x:1572,y:626,t:1511889265686};","{x:1746,y:624,t:1511889265702};","{x:1919,y:604,t:1511889265719};","{x:1919,y:590,t:1511889265735};","{x:1919,y:584,t:1511889265752};","{x:1919,y:569,t:1511889265768};","{x:1919,y:551,t:1511889265785};","{x:1919,y:535,t:1511889265802};","{x:1919,y:529,t:1511889265818};","{x:1919,y:526,t:1511889265881};","{x:1919,y:525,t:1511889265889};","{x:1919,y:522,t:1511889265902};","{x:1919,y:508,t:1511889265918};","{x:1919,y:491,t:1511889265935};","{x:1919,y:459,t:1511889265952};","{x:1919,y:445,t:1511889265968};","{x:1919,y:431,t:1511889265985};","{x:1919,y:416,t:1511889266002};","{x:1919,y:391,t:1511889266019};","{x:1919,y:361,t:1511889266035};","{x:1919,y:323,t:1511889266052};","{x:1919,y:291,t:1511889266069};","{x:1919,y:256,t:1511889266085};","{x:1919,y:222,t:1511889266102};","{x:1919,y:184,t:1511889266118};","{x:1919,y:142,t:1511889266135};","{x:1919,y:7,t:1511889266152};","{x:1919,y:0,t:1511889266169};","{x:1919,y:2,t:1511889266369};","{x:1919,y:4,t:1511889266385};","{x:1919,y:8,t:1511889266402};","{x:1919,y:7,t:1511889266465};","{x:1919,y:3,t:1511889266472};","{x:1919,y:1,t:1511889266486};","{x:1919,y:0,t:1511889266502};","{x:1918,y:0,t:1511889266793};","{x:1911,y:0,t:1511889266802};","{x:1884,y:0,t:1511889266819};","{x:1844,y:0,t:1511889266836};","{x:1787,y:0,t:1511889266852};","{x:1716,y:0,t:1511889266869};","{x:1634,y:0,t:1511889266886};","{x:1537,y:0,t:1511889266903};","{x:1444,y:0,t:1511889266919};","{x:1293,y:0,t:1511889266937};","{x:1185,y:0,t:1511889266954};","{x:1076,y:0,t:1511889266970};","{x:970,y:0,t:1511889266987};","{x:871,y:0,t:1511889267004};","{x:788,y:0,t:1511889267020};","{x:715,y:21,t:1511889267038};","{x:650,y:57,t:1511889267055};","{x:587,y:111,t:1511889267070};","{x:504,y:205,t:1511889267087};","{x:420,y:340,t:1511889267104};","{x:358,y:488,t:1511889267121};","{x:306,y:678,t:1511889267138};","{x:295,y:759,t:1511889267154};","{x:291,y:800,t:1511889267170};","{x:291,y:823,t:1511889267187};","{x:293,y:835,t:1511889267204};","{x:301,y:841,t:1511889267220};","{x:314,y:846,t:1511889267237};","{x:328,y:846,t:1511889267254};","{x:351,y:844,t:1511889267271};","{x:384,y:842,t:1511889267287};","{x:423,y:842,t:1511889267305};","{x:455,y:842,t:1511889267321};","{x:488,y:842,t:1511889267337};","{x:509,y:839,t:1511889267354};","{x:547,y:825,t:1511889267371};","{x:603,y:791,t:1511889267387};","{x:664,y:731,t:1511889267404};","{x:718,y:660,t:1511889267422};","{x:771,y:575,t:1511889267437};","{x:821,y:482,t:1511889267455};","{x:876,y:392,t:1511889267472};","{x:932,y:326,t:1511889267488};","{x:996,y:282,t:1511889267505};","{x:1066,y:253,t:1511889267521};","{x:1106,y:245,t:1511889267538};","{x:1138,y:244,t:1511889267555};","{x:1155,y:244,t:1511889267572};","{x:1162,y:244,t:1511889267588};","{x:1164,y:244,t:1511889267605};","{x:1165,y:244,t:1511889267622};","{x:1166,y:244,t:1511889267690};","{x:1166,y:245,t:1511889267705};","{x:1154,y:276,t:1511889267722};","{x:1126,y:311,t:1511889267738};","{x:1089,y:353,t:1511889267755};","{x:1051,y:402,t:1511889267772};","{x:1012,y:457,t:1511889267788};","{x:986,y:494,t:1511889267805};","{x:964,y:521,t:1511889267822};","{x:948,y:539,t:1511889267839};","{x:933,y:560,t:1511889267855};","{x:920,y:582,t:1511889267872};","{x:906,y:600,t:1511889267889};","{x:900,y:611,t:1511889267905};","{x:899,y:613,t:1511889267922};","{x:900,y:613,t:1511889268026};","{x:902,y:613,t:1511889268039};","{x:916,y:605,t:1511889268055};","{x:934,y:595,t:1511889268072};","{x:960,y:584,t:1511889268089};","{x:987,y:579,t:1511889268105};","{x:1038,y:575,t:1511889268122};","{x:1085,y:575,t:1511889268139};","{x:1138,y:575,t:1511889268155};","{x:1186,y:575,t:1511889268172};","{x:1222,y:575,t:1511889268189};","{x:1246,y:575,t:1511889268206};","{x:1256,y:575,t:1511889268222};","{x:1258,y:575,t:1511889268239};","{x:1257,y:575,t:1511889268330};","{x:1254,y:575,t:1511889268339};","{x:1247,y:575,t:1511889268356};","{x:1233,y:577,t:1511889268372};","{x:1216,y:577,t:1511889268389};","{x:1198,y:577,t:1511889268406};","{x:1182,y:577,t:1511889268422};","{x:1168,y:577,t:1511889268439};","{x:1158,y:577,t:1511889268456};","{x:1151,y:575,t:1511889268472};","{x:1146,y:575,t:1511889268489};","{x:1139,y:572,t:1511889268505};","{x:1135,y:571,t:1511889268522};","{x:1133,y:570,t:1511889268539};","{x:1132,y:570,t:1511889268556};","{x:1130,y:570,t:1511889268572};","{x:1129,y:570,t:1511889268589};","{x:1128,y:569,t:1511889268606};","{x:1127,y:569,t:1511889268626};","{x:1125,y:569,t:1511889268642};","{x:1124,y:568,t:1511889268656};","{x:1121,y:567,t:1511889268673};","{x:1120,y:567,t:1511889268689};","{x:1118,y:566,t:1511889268706};","{x:1117,y:566,t:1511889268730};","{x:1115,y:566,t:1511889268739};","{x:1113,y:566,t:1511889268756};","{x:1111,y:566,t:1511889268773};","{x:1108,y:566,t:1511889268789};","{x:1106,y:566,t:1511889268806};","{x:1104,y:566,t:1511889268823};","{x:1103,y:566,t:1511889268839};","{x:1099,y:566,t:1511889268856};","{x:1095,y:566,t:1511889268873};","{x:1086,y:564,t:1511889268891};","{x:1074,y:563,t:1511889268905};","{x:1073,y:562,t:1511889268953};","{x:1076,y:562,t:1511889269130};","{x:1080,y:562,t:1511889269139};","{x:1085,y:562,t:1511889269156};","{x:1086,y:562,t:1511889269173};","{x:1089,y:565,t:1511889269465};","{x:1090,y:566,t:1511889269473};","{x:1090,y:569,t:1511889269489};","{x:1090,y:570,t:1511889269506};","{x:1091,y:571,t:1511889269522};","{x:1092,y:572,t:1511889269561};","{x:1092,y:573,t:1511889269572};","{x:1092,y:576,t:1511889269589};","{x:1092,y:579,t:1511889269606};","{x:1093,y:580,t:1511889269622};","{x:1092,y:580,t:1511889270049};","{x:1089,y:579,t:1511889270056};","{x:1076,y:579,t:1511889270072};","{x:1050,y:579,t:1511889270089};","{x:971,y:586,t:1511889270106};","{x:846,y:607,t:1511889270123};","{x:691,y:628,t:1511889270139};","{x:521,y:639,t:1511889270156};","{x:352,y:642,t:1511889270173};","{x:224,y:619,t:1511889270189};","{x:125,y:581,t:1511889270206};","{x:61,y:551,t:1511889270223};","{x:38,y:538,t:1511889270239};","{x:33,y:533,t:1511889270256};","{x:35,y:527,t:1511889270273};","{x:44,y:520,t:1511889270289};","{x:52,y:516,t:1511889270306};","{x:60,y:515,t:1511889270323};","{x:74,y:513,t:1511889270339};","{x:91,y:511,t:1511889270356};","{x:113,y:510,t:1511889270373};","{x:132,y:510,t:1511889270389};","{x:144,y:510,t:1511889270406};","{x:154,y:512,t:1511889270423};","{x:171,y:519,t:1511889270440};","{x:190,y:526,t:1511889270457};","{x:215,y:532,t:1511889270473};","{x:229,y:533,t:1511889270489};","{x:235,y:534,t:1511889270506};","{x:239,y:534,t:1511889270523};","{x:247,y:534,t:1511889270540};","{x:265,y:534,t:1511889270556};","{x:289,y:534,t:1511889270573};","{x:318,y:531,t:1511889270590};","{x:347,y:530,t:1511889270606};","{x:373,y:530,t:1511889270623};","{x:397,y:531,t:1511889270640};","{x:410,y:534,t:1511889270656};","{x:414,y:536,t:1511889270673};","{x:410,y:532,t:1511889270906};","{x:402,y:528,t:1511889270923};","{x:399,y:526,t:1511889270940};","{x:398,y:526,t:1511889271049};","{x:398,y:528,t:1511889271178};","{x:398,y:529,t:1511889271191};","{x:398,y:530,t:1511889271207};","{x:398,y:531,t:1511889271224};","{x:398,y:533,t:1511889271465};","{x:398,y:535,t:1511889271474};","{x:398,y:539,t:1511889271490};","{x:398,y:544,t:1511889271507};","{x:399,y:548,t:1511889271524};","{x:399,y:549,t:1511889271553};","{x:400,y:551,t:1511889271634};","{x:400,y:552,t:1511889271794};","{x:400,y:555,t:1511889271809};","{x:400,y:556,t:1511889271824};","{x:400,y:561,t:1511889271841};","{x:400,y:564,t:1511889271857};","{x:400,y:565,t:1511889271945};","{x:400,y:567,t:1511889272073};","{x:400,y:567,t:1511889272091};","{x:401,y:568,t:1511889272145};","{x:401,y:569,t:1511889272157};","{x:403,y:570,t:1511889272174};","{x:403,y:571,t:1511889272191};","{x:406,y:574,t:1511889272207};","{x:407,y:576,t:1511889272224};","{x:409,y:581,t:1511889272241};","{x:410,y:584,t:1511889272258};","{x:411,y:588,t:1511889272274};","{x:413,y:593,t:1511889272291};","{x:414,y:600,t:1511889272308};","{x:415,y:609,t:1511889272324};","{x:418,y:617,t:1511889272341};","{x:419,y:625,t:1511889272358};","{x:419,y:630,t:1511889272374};","{x:421,y:633,t:1511889272392};","{x:421,y:634,t:1511889272408};","{x:421,y:636,t:1511889272425};","{x:421,y:637,t:1511889272449};","{x:422,y:637,t:1511889272458};","{x:422,y:645,t:1511889272475};","{x:425,y:649,t:1511889272491};","{x:430,y:657,t:1511889272508};","{x:432,y:661,t:1511889272524};","{x:434,y:664,t:1511889272541};","{x:443,y:668,t:1511889272558};","{x:463,y:675,t:1511889272574};","{x:503,y:689,t:1511889272591};","{x:661,y:718,t:1511889272608};","{x:734,y:729,t:1511889272624};","{x:1004,y:763,t:1511889272641};","{x:1194,y:783,t:1511889272658};","{x:1371,y:790,t:1511889272675};","{x:1528,y:801,t:1511889272691};","{x:1650,y:819,t:1511889272708};","{x:1735,y:827,t:1511889272725};","{x:1761,y:827,t:1511889272742};","{x:1765,y:826,t:1511889272758};","{x:1763,y:821,t:1511889272775};","{x:1753,y:809,t:1511889272791};","{x:1733,y:797,t:1511889272808};","{x:1705,y:783,t:1511889272825};","{x:1688,y:773,t:1511889272841};","{x:1674,y:763,t:1511889272858};","{x:1662,y:758,t:1511889272876};","{x:1642,y:751,t:1511889272891};","{x:1616,y:740,t:1511889272909};","{x:1575,y:724,t:1511889272926};","{x:1531,y:704,t:1511889272942};","{x:1470,y:678,t:1511889272958};","{x:1390,y:642,t:1511889272976};","{x:1299,y:600,t:1511889272992};","{x:1153,y:548,t:1511889273009};","{x:1107,y:539,t:1511889273025};","{x:1090,y:536,t:1511889273042};","{x:1083,y:535,t:1511889273059};","{x:1082,y:535,t:1511889273076};","{x:1080,y:534,t:1511889273113};","{x:1079,y:534,t:1511889273126};","{x:1076,y:533,t:1511889273143};","{x:1075,y:533,t:1511889273161};","{x:1075,y:535,t:1511889273177};","{x:1075,y:536,t:1511889273193};","{x:1076,y:538,t:1511889273217};","{x:1078,y:539,t:1511889273225};","{x:1090,y:546,t:1511889273243};","{x:1113,y:559,t:1511889273259};","{x:1132,y:567,t:1511889273276};","{x:1146,y:572,t:1511889273293};","{x:1155,y:574,t:1511889273309};","{x:1156,y:575,t:1511889273326};","{x:1155,y:575,t:1511889273385};","{x:1154,y:575,t:1511889273392};","{x:1151,y:575,t:1511889273408};","{x:1148,y:575,t:1511889273425};","{x:1143,y:575,t:1511889273442};","{x:1140,y:575,t:1511889273458};","{x:1136,y:575,t:1511889273475};","{x:1133,y:575,t:1511889273492};","{x:1132,y:575,t:1511889273512};","{x:1131,y:575,t:1511889273525};","{x:1128,y:575,t:1511889273542};","{x:1125,y:575,t:1511889273559};","{x:1122,y:575,t:1511889273575};","{x:1117,y:575,t:1511889273592};","{x:1112,y:573,t:1511889273609};","{x:1107,y:572,t:1511889273625};","{x:1102,y:570,t:1511889273643};","{x:1097,y:569,t:1511889273660};","{x:1094,y:568,t:1511889273675};","{x:1092,y:567,t:1511889273693};","{x:1090,y:566,t:1511889273710};","{x:1086,y:564,t:1511889273725};","{x:1084,y:563,t:1511889273743};","{x:1082,y:561,t:1511889273760};","{x:1081,y:561,t:1511889273818};","{x:1080,y:561,t:1511889273826};","{x:1082,y:562,t:1511889273970};","{x:1084,y:562,t:1511889273978};","{x:1086,y:564,t:1511889273992};","{x:1088,y:565,t:1511889274009};","{x:1083,y:565,t:1511889274465};","{x:1064,y:569,t:1511889274476};","{x:988,y:584,t:1511889274493};","{x:869,y:615,t:1511889274509};","{x:727,y:663,t:1511889274526};","{x:607,y:705,t:1511889274543};","{x:540,y:718,t:1511889274559};","{x:507,y:719,t:1511889274576};","{x:469,y:715,t:1511889274592};","{x:451,y:706,t:1511889274609};","{x:448,y:704,t:1511889274626};","{x:447,y:704,t:1511889274712};","{x:447,y:703,t:1511889274723};","{x:448,y:702,t:1511889274739};"],"block":"triangular_testing","hovered":"-5-E -E -E -E -E ","clicked":[["answer","clicked"],["A ","false"],["B ","false"],["C ","false"],["D ","false"],["E ","false"],["F ","false"],["G ","false"],["H ","false"],["I ","false"],["J ","false"],["K ","false"],["L ","false"],["M ","false"],["N ","false"],["O ","false"],["P ","false"],["Z ","false"],["X ","false"]],"answer":["E","G"],"orth_correct":1,"correct":1,"axis":"full","impasse":1,"explicit":3,"q":6,"question":"duration","scenario":"bigset","condition":"311","session":"golf","graph":"triangular","experiment":"2YP3","subject":"LSRUK","internal_node_id":"0.0-6.0-0.0","time_elapsed":291645,"trial_index":10,"trial_type":"html","url":"../views/src/external/stimulus.html","rt":10479},{"mouseLog":["{x:1911,y:1911,t:0};","{x:459,y:676,t:1511889281721};","{x:487,y:577,t:1511889281733};","{x:534,y:349,t:1511889281749};","{x:561,y:153,t:1511889281765};","{x:578,y:9,t:1511889281782};","{x:582,y:0,t:1511889281798};","{x:584,y:0,t:1511889281815};","{x:581,y:0,t:1511889282073};","{x:572,y:0,t:1511889282082};","{x:545,y:0,t:1511889282099};","{x:510,y:0,t:1511889282115};","{x:467,y:8,t:1511889282132};","{x:423,y:26,t:1511889282149};","{x:389,y:44,t:1511889282165};","{x:362,y:62,t:1511889282182};","{x:333,y:82,t:1511889282199};","{x:300,y:105,t:1511889282215};","{x:251,y:152,t:1511889282232};","{x:221,y:201,t:1511889282249};","{x:207,y:251,t:1511889282265};","{x:204,y:300,t:1511889282282};","{x:215,y:362,t:1511889282299};","{x:266,y:429,t:1511889282316};","{x:350,y:505,t:1511889282332};","{x:447,y:573,t:1511889282349};","{x:551,y:629,t:1511889282366};","{x:644,y:671,t:1511889282382};","{x:717,y:704,t:1511889282399};","{x:786,y:731,t:1511889282416};","{x:807,y:741,t:1511889282433};","{x:816,y:745,t:1511889282450};","{x:818,y:746,t:1511889282466};","{x:817,y:746,t:1511889282544};","{x:816,y:746,t:1511889282552};","{x:814,y:746,t:1511889282566};","{x:813,y:746,t:1511889282582};","{x:811,y:746,t:1511889282599};","{x:810,y:746,t:1511889282801};","{x:809,y:746,t:1511889282825};","{x:808,y:746,t:1511889282865};","{x:807,y:746,t:1511889282881};","{x:806,y:746,t:1511889282961};","{x:805,y:746,t:1511889282985};","{x:805,y:745,t:1511889283001};","{x:804,y:745,t:1511889283017};","{x:803,y:745,t:1511889283073};","{x:801,y:744,t:1511889285914};","{x:799,y:744,t:1511889285921};","{x:798,y:744,t:1511889285937};","{x:795,y:744,t:1511889285954};","{x:792,y:744,t:1511889285970};","{x:791,y:744,t:1511889285987};","{x:789,y:744,t:1511889286003};","{x:788,y:744,t:1511889286058};","{x:788,y:743,t:1511889288738};","{x:786,y:742,t:1511889288746};","{x:786,y:741,t:1511889288756};","{x:783,y:738,t:1511889288772};","{x:778,y:733,t:1511889288789};","{x:774,y:732,t:1511889288806};","{x:773,y:731,t:1511889288833};","{x:773,y:730,t:1511889288841};","{x:773,y:729,t:1511889288856};","{x:773,y:728,t:1511889288873};","{x:776,y:724,t:1511889288889};","{x:781,y:721,t:1511889288906};","{x:786,y:717,t:1511889288922};","{x:792,y:717,t:1511889288940};","{x:796,y:717,t:1511889288957};","{x:811,y:718,t:1511889288973};","{x:833,y:723,t:1511889288989};","{x:854,y:730,t:1511889289007};","{x:879,y:735,t:1511889289022};","{x:922,y:737,t:1511889289039};","{x:991,y:737,t:1511889289057};","{x:1053,y:737,t:1511889289073};","{x:1141,y:732,t:1511889289089};","{x:1183,y:732,t:1511889289107};","{x:1213,y:734,t:1511889289124};","{x:1236,y:741,t:1511889289140};","{x:1249,y:744,t:1511889289157};","{x:1253,y:745,t:1511889289174};","{x:1254,y:745,t:1511889289190};","{x:1255,y:746,t:1511889289207};","{x:1255,y:747,t:1511889289938};","{x:1250,y:742,t:1511889289945};","{x:1242,y:735,t:1511889289958};","{x:1230,y:726,t:1511889289974};","{x:1217,y:718,t:1511889289991};","{x:1202,y:708,t:1511889290008};","{x:1186,y:699,t:1511889290024};","{x:1171,y:691,t:1511889290041};","{x:1156,y:685,t:1511889290057};","{x:1150,y:684,t:1511889290074};","{x:1147,y:682,t:1511889290091};","{x:1141,y:681,t:1511889290108};","{x:1132,y:678,t:1511889290124};","{x:1120,y:676,t:1511889290141};","{x:1106,y:675,t:1511889290158};","{x:1091,y:675,t:1511889290174};","{x:1082,y:675,t:1511889290191};","{x:1073,y:678,t:1511889290208};","{x:1065,y:682,t:1511889290224};","{x:1056,y:687,t:1511889290241};","{x:1052,y:690,t:1511889290257};","{x:1051,y:691,t:1511889290274};","{x:1051,y:692,t:1511889290291};","{x:1051,y:694,t:1511889290308};","{x:1051,y:697,t:1511889290325};","{x:1051,y:701,t:1511889290341};","{x:1049,y:704,t:1511889290358};","{x:1049,y:706,t:1511889290375};","{x:1049,y:707,t:1511889290770};","{x:1049,y:709,t:1511889290777};","{x:1048,y:710,t:1511889290801};","{x:1047,y:713,t:1511889291154};","{x:1045,y:716,t:1511889291161};","{x:1042,y:719,t:1511889291175};","{x:1035,y:732,t:1511889291192};","{x:1027,y:748,t:1511889291209};","{x:1021,y:761,t:1511889291225};","{x:1014,y:777,t:1511889291242};","{x:1011,y:786,t:1511889291259};","{x:1009,y:792,t:1511889291275};","{x:1008,y:798,t:1511889291292};","{x:1007,y:799,t:1511889291309};","{x:1006,y:801,t:1511889291325};","{x:1005,y:802,t:1511889291410};","{x:1003,y:802,t:1511889291425};","{x:1002,y:798,t:1511889291442};","{x:1000,y:795,t:1511889291459};","{x:1000,y:791,t:1511889291477};","{x:1000,y:790,t:1511889291513};","{x:1000,y:788,t:1511889291526};","{x:1000,y:786,t:1511889291542};","{x:999,y:784,t:1511889291559};","{x:999,y:782,t:1511889291576};","{x:998,y:781,t:1511889291592};","{x:998,y:780,t:1511889291609};","{x:998,y:779,t:1511889291874};","{x:998,y:778,t:1511889291881};","{x:998,y:775,t:1511889291893};","{x:995,y:773,t:1511889291909};","{x:993,y:771,t:1511889291926};","{x:991,y:769,t:1511889292250};","{x:991,y:767,t:1511889292262};","{x:990,y:767,t:1511889292275};","{x:990,y:766,t:1511889292457};","{x:990,y:765,t:1511889292465};","{x:989,y:764,t:1511889292475};","{x:989,y:763,t:1511889292492};","{x:988,y:763,t:1511889292509};","{x:988,y:762,t:1511889292536};","{x:989,y:762,t:1511889292841};","{x:990,y:762,t:1511889292849};","{x:993,y:764,t:1511889292865};","{x:995,y:766,t:1511889292878};","{x:1002,y:769,t:1511889292893};","{x:1008,y:772,t:1511889292910};","{x:1011,y:774,t:1511889292927};","{x:1014,y:775,t:1511889292945};","{x:1015,y:775,t:1511889292960};","{x:1017,y:777,t:1511889292977};","{x:1019,y:778,t:1511889293298};","{x:1020,y:781,t:1511889293310};","{x:1023,y:785,t:1511889293327};","{x:1025,y:792,t:1511889293345};","{x:1026,y:792,t:1511889293361};","{x:1029,y:796,t:1511889293377};","{x:1031,y:799,t:1511889293393};","{x:1036,y:805,t:1511889293411};","{x:1040,y:812,t:1511889293427};","{x:1044,y:819,t:1511889293444};","{x:1046,y:822,t:1511889293461};","{x:1047,y:823,t:1511889293477};","{x:1048,y:825,t:1511889293494};","{x:1049,y:827,t:1511889293511};","{x:1049,y:828,t:1511889294114};","{x:1051,y:826,t:1511889294128};","{x:1059,y:812,t:1511889294146};","{x:1065,y:803,t:1511889294161};","{x:1069,y:799,t:1511889294177};","{x:1073,y:795,t:1511889294195};","{x:1077,y:795,t:1511889294211};","{x:1081,y:795,t:1511889294228};","{x:1085,y:795,t:1511889294245};","{x:1088,y:794,t:1511889294261};","{x:1093,y:793,t:1511889294278};","{x:1100,y:792,t:1511889294295};","{x:1106,y:792,t:1511889294311};","{x:1114,y:791,t:1511889294328};","{x:1126,y:791,t:1511889294345};","{x:1133,y:792,t:1511889294361};","{x:1136,y:792,t:1511889294378};","{x:1138,y:793,t:1511889294395};","{x:1139,y:793,t:1511889294412};","{x:1143,y:792,t:1511889294428};","{x:1148,y:789,t:1511889294445};","{x:1151,y:786,t:1511889294462};","{x:1155,y:782,t:1511889294478};","{x:1160,y:777,t:1511889294495};","{x:1164,y:774,t:1511889294512};","{x:1168,y:772,t:1511889294528};","{x:1170,y:769,t:1511889294545};","{x:1170,y:768,t:1511889294562};","{x:1171,y:766,t:1511889294578};","{x:1171,y:765,t:1511889294595};","{x:1171,y:763,t:1511889294612};","{x:1171,y:762,t:1511889294706};","{x:1171,y:761,t:1511889294729};","{x:1169,y:761,t:1511889294745};","{x:1165,y:759,t:1511889294761};","{x:1162,y:759,t:1511889294779};","{x:1156,y:758,t:1511889294795};","{x:1152,y:757,t:1511889294812};","{x:1149,y:757,t:1511889294829};","{x:1150,y:757,t:1511889295106};","{x:1151,y:758,t:1511889295113};","{x:1152,y:758,t:1511889295129};","{x:1153,y:759,t:1511889295146};","{x:1154,y:759,t:1511889295161};","{x:1155,y:760,t:1511889295226};","{x:1155,y:761,t:1511889295233};","{x:1156,y:761,t:1511889295246};","{x:1157,y:762,t:1511889295289};","{x:1158,y:765,t:1511889295313};","{x:1159,y:766,t:1511889295329};","{x:1159,y:765,t:1511889295745};","{x:1158,y:764,t:1511889295763};","{x:1157,y:763,t:1511889295779};","{x:1156,y:762,t:1511889295833};","{x:1156,y:763,t:1511889297217};","{x:1156,y:764,t:1511889297233};","{x:1156,y:765,t:1511889297273};","{x:1156,y:766,t:1511889297281};","{x:1156,y:769,t:1511889297298};","{x:1156,y:772,t:1511889297314};","{x:1157,y:774,t:1511889297331};","{x:1157,y:775,t:1511889297347};","{x:1159,y:779,t:1511889297364};","{x:1162,y:785,t:1511889297381};","{x:1167,y:792,t:1511889297397};","{x:1172,y:799,t:1511889297414};","{x:1176,y:801,t:1511889297431};","{x:1177,y:801,t:1511889297473};","{x:1178,y:801,t:1511889297481};","{x:1180,y:801,t:1511889297513};","{x:1181,y:799,t:1511889297531};","{x:1182,y:792,t:1511889297548};","{x:1182,y:785,t:1511889297564};","{x:1181,y:777,t:1511889297581};","{x:1178,y:768,t:1511889297598};","{x:1173,y:761,t:1511889297614};","{x:1170,y:754,t:1511889297631};","{x:1165,y:748,t:1511889297648};","{x:1157,y:738,t:1511889297664};","{x:1148,y:721,t:1511889297681};","{x:1145,y:715,t:1511889297697};","{x:1143,y:709,t:1511889297714};","{x:1140,y:703,t:1511889297731};","{x:1139,y:700,t:1511889297748};","{x:1137,y:693,t:1511889297764};","{x:1136,y:689,t:1511889297781};","{x:1135,y:683,t:1511889297798};","{x:1133,y:676,t:1511889297815};","{x:1132,y:669,t:1511889297831};","{x:1132,y:664,t:1511889297848};","{x:1131,y:654,t:1511889297865};","{x:1129,y:649,t:1511889297881};","{x:1129,y:644,t:1511889297897};","{x:1129,y:641,t:1511889297915};","{x:1129,y:639,t:1511889297931};","{x:1130,y:638,t:1511889297948};","{x:1131,y:638,t:1511889297977};","{x:1134,y:638,t:1511889297993};","{x:1135,y:638,t:1511889298001};","{x:1139,y:638,t:1511889298015};","{x:1144,y:638,t:1511889298031};","{x:1149,y:640,t:1511889298048};","{x:1153,y:641,t:1511889298065};","{x:1155,y:642,t:1511889298081};","{x:1159,y:643,t:1511889298098};","{x:1164,y:644,t:1511889298115};","{x:1170,y:648,t:1511889298131};","{x:1180,y:650,t:1511889298148};","{x:1186,y:652,t:1511889298165};","{x:1190,y:653,t:1511889298182};","{x:1193,y:654,t:1511889298198};","{x:1193,y:655,t:1511889298215};","{x:1193,y:657,t:1511889298233};","{x:1193,y:658,t:1511889298248};","{x:1193,y:659,t:1511889298273};","{x:1192,y:659,t:1511889298289};","{x:1190,y:661,t:1511889298298};","{x:1184,y:661,t:1511889298315};","{x:1168,y:666,t:1511889298332};","{x:1153,y:668,t:1511889298348};","{x:1137,y:673,t:1511889298365};","{x:1125,y:677,t:1511889298382};","{x:1118,y:678,t:1511889298398};","{x:1114,y:680,t:1511889298415};","{x:1111,y:681,t:1511889298432};","{x:1110,y:682,t:1511889298448};","{x:1110,y:684,t:1511889298465};","{x:1109,y:688,t:1511889298481};","{x:1109,y:691,t:1511889298498};","{x:1109,y:694,t:1511889298515};","{x:1109,y:696,t:1511889298532};","{x:1109,y:699,t:1511889298548};","{x:1111,y:702,t:1511889298565};","{x:1111,y:703,t:1511889298582};","{x:1112,y:706,t:1511889298599};","{x:1114,y:710,t:1511889298615};","{x:1118,y:714,t:1511889298632};","{x:1123,y:718,t:1511889298649};","{x:1125,y:719,t:1511889298665};","{x:1126,y:720,t:1511889298681};","{x:1127,y:721,t:1511889298713};","{x:1128,y:722,t:1511889298729};","{x:1128,y:724,t:1511889298753};","{x:1130,y:728,t:1511889298765};","{x:1145,y:746,t:1511889298782};","{x:1162,y:767,t:1511889298799};","{x:1180,y:781,t:1511889298815};","{x:1188,y:786,t:1511889298832};","{x:1190,y:786,t:1511889298849};","{x:1191,y:786,t:1511889298889};","{x:1192,y:787,t:1511889298905};","{x:1192,y:786,t:1511889299051};","{x:1191,y:784,t:1511889299073};","{x:1191,y:783,t:1511889299082};","{x:1189,y:781,t:1511889299099};","{x:1186,y:777,t:1511889299116};","{x:1182,y:771,t:1511889299132};","{x:1174,y:766,t:1511889299149};","{x:1170,y:761,t:1511889299166};","{x:1167,y:758,t:1511889299182};","{x:1166,y:756,t:1511889299201};","{x:1165,y:755,t:1511889299216};","{x:1164,y:754,t:1511889299232};","{x:1163,y:753,t:1511889299257};","{x:1162,y:753,t:1511889299489};","{x:1161,y:754,t:1511889299753};","{x:1161,y:755,t:1511889299785};","{x:1160,y:756,t:1511889299849};","{x:1160,y:757,t:1511889299881};","{x:1160,y:758,t:1511889299905};","{x:1159,y:759,t:1511889299977};","{x:1159,y:763,t:1511889300273};","{x:1160,y:768,t:1511889300283};","{x:1161,y:773,t:1511889300300};","{x:1160,y:778,t:1511889300317};","{x:1157,y:786,t:1511889300333};","{x:1149,y:805,t:1511889300350};","{x:1140,y:840,t:1511889300366};","{x:1129,y:887,t:1511889300382};","{x:1118,y:923,t:1511889300399};","{x:1106,y:958,t:1511889300416};","{x:1102,y:971,t:1511889300433};","{x:1101,y:979,t:1511889300449};","{x:1101,y:983,t:1511889300466};","{x:1101,y:985,t:1511889300483};","{x:1100,y:987,t:1511889300499};","{x:1097,y:992,t:1511889300516};","{x:1091,y:1000,t:1511889300533};","{x:1087,y:1008,t:1511889300549};","{x:1083,y:1014,t:1511889300566};","{x:1081,y:1017,t:1511889300583};","{x:1081,y:1016,t:1511889300873};","{x:1081,y:1015,t:1511889300884};","{x:1081,y:1014,t:1511889300901};","{x:1081,y:1013,t:1511889300937};","{x:1082,y:1013,t:1511889300951};","{x:1082,y:1012,t:1511889301049};","{x:1083,y:1011,t:1511889301057};","{x:1083,y:1010,t:1511889301067};","{x:1084,y:1009,t:1511889301084};","{x:1085,y:1007,t:1511889301101};","{x:1085,y:1004,t:1511889301117};","{x:1087,y:1001,t:1511889301134};","{x:1087,y:996,t:1511889301151};","{x:1088,y:985,t:1511889301167};","{x:1089,y:974,t:1511889301184};","{x:1091,y:969,t:1511889301201};","{x:1091,y:968,t:1511889301273};","{x:1092,y:965,t:1511889301284};","{x:1092,y:952,t:1511889301301};","{x:1092,y:935,t:1511889301318};","{x:1094,y:918,t:1511889301334};","{x:1099,y:896,t:1511889301351};","{x:1103,y:874,t:1511889301368};","{x:1107,y:855,t:1511889301384};","{x:1110,y:819,t:1511889301401};","{x:1115,y:786,t:1511889301417};","{x:1115,y:750,t:1511889301434};","{x:1115,y:718,t:1511889301451};","{x:1111,y:695,t:1511889301468};","{x:1105,y:680,t:1511889301484};","{x:1102,y:662,t:1511889301501};","{x:1100,y:640,t:1511889301518};","{x:1100,y:622,t:1511889301534};","{x:1100,y:612,t:1511889301551};","{x:1100,y:610,t:1511889301568};","{x:1100,y:608,t:1511889301585};","{x:1102,y:608,t:1511889301649};","{x:1107,y:608,t:1511889301657};","{x:1114,y:608,t:1511889301668};","{x:1131,y:606,t:1511889301685};","{x:1146,y:606,t:1511889301701};","{x:1162,y:606,t:1511889301718};","{x:1182,y:606,t:1511889301735};","{x:1198,y:606,t:1511889301751};","{x:1213,y:606,t:1511889301768};","{x:1238,y:606,t:1511889301785};","{x:1256,y:606,t:1511889301801};","{x:1273,y:606,t:1511889301818};","{x:1288,y:606,t:1511889301835};","{x:1303,y:610,t:1511889301851};","{x:1313,y:613,t:1511889301868};","{x:1325,y:614,t:1511889301885};","{x:1335,y:618,t:1511889301901};","{x:1344,y:622,t:1511889301918};","{x:1348,y:623,t:1511889301936};","{x:1352,y:624,t:1511889301952};","{x:1353,y:625,t:1511889301969};","{x:1354,y:626,t:1511889302130};","{x:1353,y:627,t:1511889302138};","{x:1351,y:627,t:1511889302153};","{x:1341,y:627,t:1511889302169};","{x:1327,y:627,t:1511889302186};","{x:1319,y:627,t:1511889302202};","{x:1308,y:629,t:1511889302219};","{x:1303,y:630,t:1511889302236};","{x:1299,y:631,t:1511889302253};","{x:1295,y:632,t:1511889302269};","{x:1293,y:633,t:1511889302286};","{x:1292,y:634,t:1511889302303};","{x:1288,y:635,t:1511889302319};","{x:1285,y:637,t:1511889302336};","{x:1282,y:638,t:1511889302353};","{x:1273,y:642,t:1511889302370};","{x:1268,y:645,t:1511889302386};","{x:1262,y:647,t:1511889302403};","{x:1254,y:649,t:1511889302419};","{x:1248,y:651,t:1511889302435};","{x:1241,y:654,t:1511889302452};","{x:1233,y:657,t:1511889302469};","{x:1230,y:658,t:1511889302485};","{x:1226,y:661,t:1511889302502};","{x:1224,y:661,t:1511889302519};","{x:1222,y:662,t:1511889302535};","{x:1220,y:663,t:1511889302552};","{x:1218,y:665,t:1511889302569};","{x:1217,y:666,t:1511889302585};","{x:1215,y:668,t:1511889302602};","{x:1214,y:669,t:1511889302619};","{x:1213,y:671,t:1511889302635};","{x:1212,y:672,t:1511889302665};","{x:1212,y:673,t:1511889302681};","{x:1212,y:674,t:1511889302697};","{x:1212,y:676,t:1511889302705};","{x:1212,y:677,t:1511889302719};","{x:1211,y:680,t:1511889302736};","{x:1211,y:683,t:1511889302752};","{x:1211,y:685,t:1511889302769};","{x:1211,y:686,t:1511889302786};","{x:1211,y:687,t:1511889302803};","{x:1211,y:688,t:1511889302858};","{x:1211,y:689,t:1511889302870};","{x:1211,y:691,t:1511889302890};","{x:1212,y:692,t:1511889302922};","{x:1212,y:693,t:1511889302946};","{x:1213,y:693,t:1511889302954};","{x:1213,y:694,t:1511889302970};","{x:1216,y:696,t:1511889302987};","{x:1217,y:697,t:1511889303003};","{x:1218,y:698,t:1511889303020};","{x:1219,y:699,t:1511889303037};","{x:1221,y:700,t:1511889303053};","{x:1224,y:702,t:1511889303070};","{x:1226,y:702,t:1511889303087};","{x:1229,y:703,t:1511889303103};","{x:1236,y:706,t:1511889303120};","{x:1245,y:712,t:1511889303137};","{x:1265,y:720,t:1511889303154};","{x:1276,y:725,t:1511889303170};","{x:1287,y:727,t:1511889303187};","{x:1294,y:730,t:1511889303204};","{x:1304,y:733,t:1511889303220};","{x:1315,y:740,t:1511889303237};","{x:1328,y:748,t:1511889303254};","{x:1343,y:755,t:1511889303270};","{x:1353,y:758,t:1511889303287};","{x:1359,y:761,t:1511889303304};","{x:1366,y:765,t:1511889303320};","{x:1369,y:766,t:1511889303337};","{x:1371,y:768,t:1511889303354};","{x:1372,y:769,t:1511889303370};","{x:1372,y:770,t:1511889303746};","{x:1372,y:771,t:1511889303762};","{x:1372,y:772,t:1511889303771};","{x:1373,y:772,t:1511889303787};","{x:1373,y:773,t:1511889304138};","{x:1372,y:773,t:1511889304736};","{x:1371,y:773,t:1511889304744};","{x:1370,y:772,t:1511889304754};","{x:1367,y:770,t:1511889304771};","{