{"_id":{"$oid":"58c04da1bb98090004c54ede"},"data":[{"condition":4,"session":"delta","experiment":"reverse","subject":"AU45F","internal_node_id":"0.0-0.0","time_elapsed":312511,"trial_index":0,"trial_type":"single-stim","block":"phone","key_press":13,"stimulus":"img/phone.png","rt":312506},{"condition":4,"session":"delta","experiment":"reverse","subject":"AU45F","internal_node_id":"0.0-1.0","time_elapsed":318530,"trial_index":1,"trial_type":"html","block":"consent","url":"../views/src/external/consent.html","rt":4467},{"condition":4,"session":"delta","experiment":"reverse","subject":"AU45F","internal_node_id":"0.0-2.0","time_elapsed":326083,"trial_index":2,"trial_type":"survey-text","block":"codes","responses":"{\"Q0\":\"DELTA\",\"Q1\":\"4\"}","rt":6549},{"condition":4,"session":"delta","experiment":"reverse","subject":"AU45F","internal_node_id":"0.0-3.0","time_elapsed":331602,"trial_index":3,"trial_type":"html","block":"instructions_lab","url":"../views/src/external/instructions_lab.html","rt":4116},{"condition":4,"session":"delta","experiment":"reverse","subject":"AU45F","internal_node_id":"0.0-4.0","time_elapsed":343885,"trial_index":4,"trial_type":"single-stim","block":"scenario-two","key_press":13,"stimulus":"img/longmire.png","rt":11282},{"block":"triangular_scaffolded","helps":0,"clicked":[["answer","clicked"],["A ","false"],["M ","false"],["D ","false"],["N ","false"],["B ","false"],["F ","false"],["H ","false"],["G ","false"],["O ","false"],["C ","false"],["J ","false"],["I ","false"],["E ","false"],["L ","false"],["K ","false"]],"answer":["C","D","L"],"correct":1,"scaffold":"show-interactive","question":"start","scenario":"longmire","graph":"triangular","condition":4,"session":"delta","experiment":"reverse","subject":"AU45F","internal_node_id":"0.0-5.0-0.0","time_elapsed":398028,"trial_index":5,"trial_type":"html","url":"../views/src/external/stimulus.html","rt":52462},{"block":"triangular_scaffolded","helps":0,"clicked":[["answer","clicked"],["A ","false"],["M ","false"],["D ","false"],["N ","false"],["B ","false"],["F ","false"],["H ","false"],["G ","false"],["O ","false"],["C ","false"],["J ","false"],["I ","false"],["E ","false"],["L ","false"],["K ","false"]],"answer":["H","J","K","L","M","N","O"],"correct":1,"scaffold":"show-interactive","question":"end","scenario":"longmire","graph":"triangular","condition":4,"session":"delta","experiment":"reverse","subject":"AU45F","internal_node_id":"0.0-5.0-1.0","time_elapsed":421503,"trial_index":6,"trial_type":"html","url":"../views/src/external/stimulus.html","rt":22215},{"block":"triangular_scaffolded","helps":0,"clicked":[["answer","clicked"],["A ","false"],["M ","false"],["D ","false"],["N ","false"],["B ","false"],["F ","false"],["H ","false"],["G ","false"],["O ","false"],["C ","false"],["J ","false"],["I ","false"],["E ","false"],["L ","false"],["K ","false"]],"answer":["G","O"],"correct":1,"scaffold":"show-interactive","question":"duration","scenario":"longmire","graph":"triangular","condition":4,"session":"delta","experiment":"reverse","subject":"AU45F","internal_node_id":"0.0-5.0-2.0","time_elapsed":431265,"trial_index":7,"trial_type":"html","url":"../views/src/external/stimulus.html","rt":8496},{"block":"triangular_scaffolded","helps":0,"clicked":[["answer","clicked"],["A ","false"],["M ","false"],["D ","false"],["N ","false"],["B ","false"],["F ","false"],["H ","false"],["G ","false"],["O ","false"],["C ","false"],["J ","false"],["I ","false"],["E ","false"],["L ","false"],["K ","false"]],"answer":["1"],"correct":1,"scaffold":"show-interactive","question":"midpoint","scenario":"longmire","graph":"triangular","condition":4,"session":"delta","experiment":"reverse","subject":"AU45F","internal_node_id":"0.0-5.0-3.0","time_elapsed":446444,"trial_index":8,"trial_type":"html","url":"../views/src/external/stimulus.html","rt":13790},{"block":"triangular_scaffolded","helps":0,"clicked":[["answer","clicked"],["A ","false"],["M ","false"],["D ","false"],["N ","false"],["B ","false"],["F ","false"],["H ","false"],["G ","false"],["O ","false"],["C ","false"],["J ","false"],["I ","false"],["E ","false"],["L ","false"],["K ","false"]],"answer":["A"],"correct":1,"scaffold":"show-interactive","question":"start+overlap","scenario":"longmire","graph":"triangular","condition":4,"session":"delta","experiment":"reverse","subject":"AU45F","internal_node_id":"0.0-5.0-4.0","time_elapsed":460749,"trial_index":9,"trial_type":"html","url":"../views/src/external/stimulus.html","rt":13022},{"block":"triangular_testing","helps":0,"answer":["G","O"],"clicked":[["answer","clicked"],["A ","false"],["M ","false"],["D ","false"],["N ","false"],["B ","false"],["F ","false"],["H ","false"],["G ","false"],["O ","false"],["C ","false"],["J ","false"],["I ","false"],["E ","false"],["L ","false"],["K ","false"]],"correct":1,"scaffold":"none","question":"contain+duration","scenario":"longmire","graph":"triangular","condition":4,"session":"delta","experiment":"reverse","subject":"AU45F","internal_node_id":"0.0-6.0-4.0","time_elapsed":492558,"trial_index":10,"trial_type":"html","url":"../views/src/external/stimulus.html","rt":30461},{"block":"triangular_testing","helps":0,"answer":["O"],"clicked":[["answer","clicked"],["A ","false"],["M ","false"],["D ","false"],["N ","false"],["B ","false"],["F ","false"],["H ","false"],["G ","false"],["O ","false"],["C ","false"],["J ","false"],["I ","false"],["E ","false"],["L ","false"],["K ","false"]],"correct":1,"scaffold":"none","question":"meets","scenario":"longmire","graph":"triangular","condition":4,"session":"delta","experiment":"reverse","subject":"AU45F","internal_node_id":"0.0-6.0-8.0","time_elapsed":511073,"trial_index":11,"trial_type":"html","url":"../views/src/external/stimulus.html","rt":17181},{"block":"triangular_testing","helps":0,"answer":["C"],"clicked":[["answer","clicked"],["A ","false"],["M ","false"],["D ","false"],["N ","false"],["B ","false"],["F ","false"],["H ","false"],["G ","false"],["O ","false"],["C ","false"],["J ","false"],["I ","false"],["E ","false"],["L ","false"],["K ","false"]],"correct":1,"scaffold":"none","question":"starts+finishes","scenario":"longmire","graph":"triangular","condition":4,"session":"delta","experiment":"reverse","subject":"AU45F","internal_node_id":"0.0-6.0-9.0","time_elapsed":536626,"trial_index":12,"trial_type":"html","url":"../views/src/external/stimulus.html","rt":24287},{"block":"triangular_testing","helps":0,"answer":["6","8"],"clicked":[["answer","clicked"],["A ","false"],["M ","false"],["D ","false"],["N ","false"],["B ","false"],["F ","false"],["H ","false"],["G ","false"],["O ","false"],["C ","false"],["J ","false"],["I ","false"],["E ","false"],["L ","false"],["K ","false"]],"correct":1,"scaffold":"none","question":"starts","scenario":"longmire","graph":"triangular","condition":4,"session":"delta","experiment":"reverse","subject":"AU45F","internal_node_id":"0.0-6.0-5.0","time_elapsed":564199,"trial_index":13,"trial_type":"html","url":"../views/src/external/stimulus.html","rt":26311},{"block":"triangular_testing","helps":0,"answer":["A","M","N"],"clicked":[["answer","clicked"],["A ","false"],["M ","false"],["D ","false"],["N ","false"],["B ","false"],["F ","false"],["H ","false"],["G ","false"],["O ","false"],["C ","false"],["J ","false"],["I ","false"],["E ","false"],["L ","false"],["K ","false"]],"correct":1,"scaffold":"none","question":"overlap+overlap","scenario":"longmire","graph":"triangular","condition":4,"session":"delta","experiment":"reverse","subject":"AU45F","internal_node_id":"0.0-6.0-2.0","time_elapsed":604014,"trial_index":14,"trial_type":"html","url":"../views/src/external/stimulus.html","rt":38557},{"block":"triangular_testing","helps":0,"answer":["K","L"],"clicked":[["answer","clicked"],["A ","false"],["M ","false"],["D ","false"],["N ","false"],["B ","false"],["F ","false"],["H ","false"],["G ","false"],["O ","false"],["C ","false"],["J ","false"],["I ","false"],["E ","false"],["L ","false"],["K ","false"]],"correct":1,"scaffold":"none","question":"during+overlap","scenario":"longmire","graph":"triangular","condition":4,"session":"delta","experiment":"reverse","subject":"AU45F","internal_node_id":"0.0-6.0-3.0","time_elapsed":641627,"trial_index":15,"trial_type":"html","url":"../views/src/external/stimulus.html","rt":36148},{"block":"triangular_testing","helps":0,"answer":["4","5"],"clicked":[["answer","clicked"],["A ","false"],["M ","false"],["D ","false"],["N ","false"],["B ","false"],["F ","false"],["H ","false"],["G ","false"],["O ","false"],["C ","false"],["J ","false"],["I ","false"],["E ","false"],["L ","false"],["K ","false"]],"correct":1,"scaffold":"none","question":"finishes","scenario":"longmire","graph":"triangular","condition":4,"session":"delta","experiment":"reverse","subject":"AU45F","internal_node_id":"0.0-6.0-6.0","time_elapsed":660757,"trial_index":16,"trial_type":"html","url":"../views/src/external/stimulus.html","rt":17873},{"block":"triangular_testing","helps":0,"answer":["A","B","C","D","F","I"],"clicked":[["answer","clicked"],["A ","false"],["M ","false"],["D ","false"],["N ","false"],["B ","false"],["F ","false"],["H ","false"],["G ","false"],["O ","false"],["C ","false"],["J ","false"],["I ","false"],["E ","false"],["L ","false"],["K ","false"]],"correct":1,"scaffold":"none","question":"before+overlap","scenario":"longmire","graph":"triangular","condition":4,"session":"delta","experiment":"reverse","subject":"AU45F","internal_node_id":"0.0-6.0-1.0","time_elapsed":684087,"trial_index":17,"trial_type":"html","url":"../views/src/external/stimulus.html","rt":22072},{"block":"triangular_testing","helps":0,"answer":["C","E","G","H","I","J","K","L","M","N","O"],"clicked":[["answer","clicked"],["A ","false"],["M ","false"],["D ","false"],["N ","false"],["B ","false"],["F ","false"],["H ","false"],["G ","false"],["O ","false"],["C ","false"],["J ","false"],["I ","false"],["E ","false"],["L ","false"],["K ","false"]],"correct":0,"scaffold":"none","question":"start+duration","scenario":"longmire","graph":"triangular","condition":4,"session":"delta","experiment":"reverse","subject":"AU45F","internal_node_id":"0.0-6.0-0.0","time_elapsed":728981,"trial_index":18,"trial_type":"html","url":"../views/src/external/stimulus.html","rt":43632},{"block":"triangular_testing","helps":0,"answer":["B","C","D","F","G"],"clicked":[["answer","clicked"],["A ","false"],["M ","false"],["D ","false"],["N ","false"],["B ","false"],["F ","false"],["H ","false"],["G ","false"],["O ","false"],["C ","false"],["J ","false"],["I ","false"],["E ","false"],["L ","false"],["K ","false"]],"correct":1,"scaffold":"none","question":"during","scenario":"longmire","graph":"triangular","condition":4,"session":"delta","experiment":"reverse","subject":"AU45F","internal_node_id":"0.0-6.0-7.0","time_elapsed":754956,"trial_index":19,"trial_type":"html","url":"../views/src/external/stimulus.html","rt":24690},{"condition":4,"session":"delta","experiment":"reverse","subject":"AU45F","internal_node_id":"0.0-7.0","time_elapsed":758554,"trial_index":20,"trial_type":"single-stim","block":"scenario-one","key_press":13,"stimulus":"img/axis.png","rt":2592},{"block":"linear_scaffolded","helps":0,"clicked":[["answer","clicked"],["M ","false"],["B ","false"],["J ","false"],["N ","false"],["D ","false"],["O ","false"],["K ","false"],["C ","false"],["F ","false"],["I ","false"],["H ","false"],["G ","false"],["L ","false"],["E ","false"],["A ","false"]],"answer":["H","O"],"correct":1,"scaffold":"show-interactive","question":"start","scenario":"axis","graph":"linear","condition":4,"session":"delta","experiment":"reverse","subject":"AU45F","internal_node_id":"0.0-8.0-0.0","time_elapsed":781477,"trial_index":21,"trial_type":"html","url":"../views/src/external/stimulus.html","rt":21672},{"block":"linear_scaffolded","helps":0,"clicked":[["answer","clicked"],["M ","false"],["B ","false"],["J ","false"],["N ","false"],["D ","false"],["O ","false"],["K ","false"],["C ","false"],["F ","false"],["I ","false"],["H ","false"],["G ","false"],["L ","false"],["E ","false"],["A ","false"]],"answer":["4"],"correct":1,"scaffold":"show-interactive","question":"end","scenario":"axis","graph":"linear","condition":4,"session":"delta","experiment":"reverse","subject":"AU45F","internal_node_id":"0.0-8.0-1.0","time_elapsed":790381,"trial_index":22,"trial_type":"html","url":"../views/src/external/stimulus.html","rt":7632},{"block":"linear_scaffolded","helps":0,"clicked":[["answer","clicked"],["M ","false"],["B ","false"],["J ","false"],["N ","false"],["D ","false"],["O ","false"],["K ","false"],["C ","false"],["F ","false"],["I ","false"],["H ","false"],["G ","false"],["L ","false"],["E ","false"],["A ","false"]],"answer":["A","C","E","F","G","H","I","K","L"],"correct":1,"scaffold":"show-interactive","question":"duration","scenario":"axis","graph":"linear","condition":4,"session":"delta","experiment":"reverse","subject":"AU45F","internal_node_id":"0.0-8.0-2.0","time_elapsed":832121,"trial_index":23,"trial_type":"html","url":"../views/src/external/stimulus.html","rt":40481},{"block":"linear_scaffolded","helps":0,"clicked":[["answer","clicked"],["M ","false"],["B ","false"],["J ","false"],["N ","false"],["D ","false"],["O ","false"],["K ","false"],["C ","false"],["F ","false"],["I ","false"],["H ","false"],["G ","false"],["L ","false"],["E ","false"],["A ","false"]],"answer":["12"],"correct":0,"scaffold":"show-interactive","question":"midpoint","scenario":"axis","graph":"linear","condition":4,"session":"delta","experiment":"reverse","subject":"AU45F","internal_node_id":"0.0-8.0-3.0","time_elapsed":858334,"trial_index":24,"trial_type":"html","url":"../views/src/external/stimulus.html","rt":24948},{"block":"linear_scaffolded","helps":0,"clicked":[["answer","clicked"],["M ","false"],["B ","false"],["J ","false"],["N ","false"],["D ","false"],["O ","false"],["K ","false"],["C ","false"],["F ","false"],["I ","false"],["H ","false"],["G ","false"],["L ","false"],["E ","false"],["A ","false"]],"answer":["7"],"correct":1,"scaffold":"show-interactive","question":"start+overlap","scenario":"axis","graph":"linear","condition":4,"session":"delta","experiment":"reverse","subject":"AU45F","internal_node_id":"0.0-8.0-4.0","time_elapsed":872423,"trial_index":25,"trial_type":"html","url":"../views/src/external/stimulus.html","rt":12834},{"block":"linear_testing","helps":0,"clicked":[["answer","clicked"],["M ","false"],["B ","false"],["J ","false"],["N ","false"],["D ","false"],["O ","false"],["K ","false"],["C ","false"],["F ","false"],["I ","false"],["H ","false"],["G ","false"],["L ","false"],["E ","false"],["A ","false"]],"answer":["F","G","M","O"],"correct":1,"scaffold":"none","question":"before+overlap","scenario":"axis","graph":"linear","condition":4,"session":"delta","experiment":"reverse","subject":"AU45F","internal_node_id":"0.0-9.0-1.0","time_elapsed":903166,"trial_index":26,"trial_type":"html","url":"../views/src/external/stimulus.html","rt":29489},{"block":"linear_testing","helps":0,"clicked":[["answer","clicked"],["M ","false"],["B ","false"],["J ","false"],["N ","false"],["D ","false"],["O ","false"],["K ","false"],["C ","false"],["F ","false"],["I ","false"],["H ","false"],["G ","false"],["L ","false"],["E ","false"],["A ","false"]],"answer":["D","H","N","O"],"correct":0,"scaffold":"none","question":"contain+duration","scenario":"axis","graph":"linear","condition":4,"session":"delta","experiment":"reverse","subject":"AU45F","internal_node_id":"0.0-9.0-4.0","time_elapsed":923131,"trial_index":27,"trial_type":"html","url":"../views/src/external/stimulus.html","rt":18693},{"block":"linear_testing","helps":0,"clicked":[["answer","clicked"],["M ","false"],["B ","false"],["J ","false"],["N ","false"],["D ","false"],["O ","false"],["K ","false"],["C ","false"],["F ","false"],["I ","false"],["H ","false"],["G ","false"],["L ","false"],["E ","false"],["A ","false"]],"answer":["H"],"correct":0,"scaffold":"none","question":"meets","scenario":"axis","graph":"linear","condition":4,"session":"delta","experiment":"reverse","subject":"AU45F","internal_node_id":"0.0-9.0-8.0","time_elapsed":929053,"trial_index":28,"trial_type":"html","url":"../views/src/external/stimulus.html","rt":4667},{"block":"linear_testing","helps":0,"clicked":[["answer","clicked"],["M ","false"],["B ","false"],["J ","false"],["N ","false"],["D ","false"],["O ","false"],["K ","false"],["C ","false"],["F ","false"],["I ","false"],["H ","false"],["G ","false"],["L ","false"],["E ","false"],["A ","false"]],"answer":["G","O"],"correct":1,"scaffold":"none","question":"finishes","scenario":"axis","graph":"linear","condition":4,"session":"delta","experiment":"reverse","subject":"AU45F","internal_node_id":"0.0-9.0-6.0","time_elapsed":940037,"trial_index":29,"trial_type":"html","url":"../views/src/external/stimulus.html","rt":9707},{"block":"linear_testing","helps":0,"clicked":[["answer","clicked"],["M ","false"],["B ","false"],["J ","false"],["N ","false"],["D ","false"],["O ","false"],["K ","false"],["C ","false"],["F ","false"],["I ","false"],["H ","false"],["G ","false"],["L ","false"],["E ","false"],["A ","false"]],"answer":["2"],"correct":0,"scaffold":"none","question":"starts","scenario":"axis","graph":"linear","condition":4,"session":"delta","experiment":"reverse","subject":"AU45F","internal_node_id":"0.0-9.0-5.0","time_elapsed":969772,"trial_index":30,"trial_type":"html","url":"../views/src/external/stimulus.html","rt":28481},{"block":"linear_testing","helps":0,"clicked":[["answer","clicked"],["M ","false"],["B ","false"],["J ","false"],["N ","false"],["D ","false"],["O ","false"],["K ","false"],["C ","false"],["F ","false"],["I ","false"],["H ","false"],["G ","false"],["L ","false"],["E ","false"],["A ","false"]],"answer":["I"],"correct":0,"scaffold":"none","question":"during+overlap","scenario":"axis","graph":"linear","condition":4,"session":"delta","experiment":"reverse","subject":"AU45F","internal_node_id":"0.0-9.0-3.0","time_elapsed":980555,"trial_index":31,"trial_type":"html","url":"../views/src/external/stimulus.html","rt":9511},{"block":"linear_testing","helps":0,"clicked":[["answer","clicked"],["M ","false"],["B ","false"],["J ","false"],["N ","false"],["D ","false"],["O ","false"],["K ","false"],["C ","false"],["F ","false"],["I ","false"],["H ","false"],["G ","false"],["L ","false"],["E ","false"],["A ","false"]],"answer":["M"],"correct":0,"scaffold":"none","question":"during","scenario":"axis","graph":"linear","condition":4,"session":"delta","experiment":"reverse","subject":"AU45F","internal_node_id":"0.0-9.0-7.0","time_elapsed":994412,"trial_index":32,"trial_type":"html","url":"../views/src/external/stimulus.html","rt":12607},{"block":"linear_testing","helps":0,"clicked":[["answer","clicked"],["M ","false"],["B ","false"],["J ","false"],["N ","false"],["D ","false"],["O ","false"],["K ","false"],["C ","false"],["F ","false"],["I ","false"],["H ","false"],["G ","false"],["L ","false"],["E ","false"],["A ","false"]],"answer":["G"],"correct":1,"scaffold":"none","question":"starts+finishes","scenario":"axis","graph":"linear","condition":4,"session":"delta","experiment":"reverse","subject":"AU45F","internal_node_id":"0.0-9.0-9.0","time_elapsed":998180,"trial_index":33,"trial_type":"html","url":"../views/src/external/stimulus.html","rt":2512},{"block":"linear_testing","helps":0,"clicked":[["answer","clicked"],["M ","false"],["B ","false"],["J ","false"],["N ","false"],["D ","false"],["O ","false"],["K ","false"],["C ","false"],["F ","false"],["I ","false"],["H ","false"],["G ","false"],["L ","false"],["E ","false"],["A ","false"]],"answer":["B"],"correct":0,"scaffold":"none","question":"overlap+overlap","scenario":"axis","graph":"linear","condition":4,"session":"delta","experiment":"reverse","subject":"AU45F","internal_node_id":"0.0-9.0-2.0","time_elapsed":1006526,"trial_index":34,"trial_type":"html","url":"../views/src/external/stimulus.html","rt":7075},{"block":"linear_testing","helps":0,"clicked":[["answer","clicked"],["M ","false"],["B ","false"],["J ","false"],["N ","false"],["D ","false"],["O ","false"],["K ","false"],["C ","false"],["F ","false"],["I ","false"],["H ","false"],["G ","false"],["L ","false"],["E ","false"],["A ","false"]],"answer":["2"],"correct":0,"scaffold":"none","question":"start+duration","scenario":"axis","graph":"linear","condition":4,"session":"delta","experiment":"reverse","subject":"AU45F","internal_node_id":"0.0-9.0-0.0","time_elapsed":1023390,"trial_index":35,"trial_type":"html","url":"../views/src/external/stimulus.html","rt":15604},{"condition":4,"session":"delta","experiment":"reverse","subject":"AU45F","internal_node_id":"0.0-10.0","time_elapsed":1026616,"trial_index":36,"trial_type":"single-stim","block":"scenario-draw","key_press":13,"stimulus":"img/jones.png","rt":2220},{"condition":4,"session":"delta","experiment":"reverse","subject":"AU45F","internal_node_id":"0.0-11.0","time_elapsed":1414926,"trial_index":37,"trial_type":"html","block":"instructions_drawing","url":"../views/src/external/instructions_draw.html","rt":387151},{"block":"drawingTest","clicked":[["answer","clicked"]],"answer":["C1"],"correct":1,"scaffold":"none","question":"duration","scenario":"jones","graph":"none","condition":4,"session":"delta","experiment":"reverse","subject":"AU45F","internal_node_id":"0.0-12.0","time_elapsed":1454565,"trial_index":38,"trial_type":"html","url":"../views/src/external/stimulus.html","rt":38256},{"block":"drawingTest","clicked":[["answer","clicked"]],"answer":["Chris","3-4pm"],"correct":1,"scaffold":"none","question":"overlap","scenario":"jones","graph":"none","condition":4,"session":"delta","experiment":"reverse","subject":"AU45F","internal_node_id":"0.0-13.0","time_elapsed":1498033,"trial_index":39,"trial_type":"html","url":"../views/src/external/stimulus.html","rt":42218},{"condition":4,"session":"delta","experiment":"reverse","subject":"AU45F","internal_node_id":"0.0-14.0","time_elapsed":1505088,"trial_index":40,"trial_type":"survey-text","block":"demo-1","responses":"{\"Q0\":\"18\",\"Q1\":\"India\"}","rt":6048},{"condition":4,"session":"delta","experiment":"reverse","subject":"AU45F","internal_node_id":"0.0-15.0","time_elapsed":1532583,"trial_index":41,"trial_type":"survey-multi-choice","block":"demo-2","responses":"{\"Q0\":\"Other\",\"Q1\":\"First\",\"Q2\":\"Natural Sciences\",\"Q3\":\"Female\",\"Q4\":\"the second one (triangular)\"}","rt":26475},{"condition":4,"session":"delta","experiment":"reverse","subject":"AU45F","internal_node_id":"0.0-16.0","time_elapsed":1549986,"trial_index":42,"trial_type":"html","block":"debrief","url":"../views/src/external/debrief.html","rt":16166}],"__v":0}
{"_id":{"$oid":"58c04e39bb98090004c54edf"},"data":[{"condition":4,"session":"delta","experiment":"reverse","subject":"Z0AQS","internal_node_id":"0.0-0.0","time_elapsed":332135,"trial_index":0,"trial_type":"single-stim","block":"phone","key_press":13,"stimulus":"img/phone.png","rt":332127},{"condition":4,"session":"delta","experiment":"reverse","subject":"Z0AQS","internal_node_id":"0.0-1.0","time_elapsed":336829,"trial_index":1,"trial_type":"html","block":"consent","url":"../views/src/external/consent.html","rt":3399},{"condition":4,"session":"delta","experiment":"reverse","subject":"Z0AQS","internal_node_id":"0.0-2.0","time_elapsed":345397,"trial_index":2,"trial_type":"survey-text","block":"codes","responses":"{\"Q0\":\"DELTA\",\"Q1\":\"4\"}","rt":7554},{"condition":4,"session":"delta","experiment":"reverse","subject":"Z0AQS","internal_node_id":"0.0-3.0","time_elapsed":352118,"trial_index":3,"trial_type":"html","block":"instructions_lab","url":"../views/src/external/instructions_lab.html","rt":5569},{"condition":4,"session":"delta","experiment":"reverse","subject":"Z0AQS","internal_node_id":"0.0-4.0","time_elapsed":365825,"trial_index":4,"trial_type":"single-stim","block":"scenario-two","key_press":13,"stimulus":"img/axis.png","rt":12705},{"block":"triangular_scaffolded","helps":0,"clicked":[["answer","clicked"],["M ","false"],["B ","false"],["J ","false"],["N ","false"],["D ","false"],["O ","false"],["K ","false"],["C ","false"],["F ","false"],["I ","false"],["H ","false"],["G ","false"],["L ","false"],["E ","false"],["A ","false"]],"answer":["G"],"correct":0,"scaffold":"show-interactive","question":"start","scenario":"axis","graph":"triangular","condition":4,"session":"delta","experiment":"reverse","subject":"Z0AQS","internal_node_id":"0.0-5.0-0.0","time_elapsed":383013,"trial_index":5,"trial_type":"html","url":"../views/src/external/stimulus.html","rt":15623},{"block":"triangular_scaffolded","helps":0,"clicked":[["answer","clicked"],["M ","false"],["B ","false"],["J ","false"],["N ","false"],["D ","false"],["O ","false"],["K ","false"],["C ","false"],["F ","false"],["I ","false"],["H ","false"],["G ","false"],["L ","false"],["E ","false"],["A ","false"]],"answer":["4"],"correct":1,"scaffold":"show-interactive","question":"end","scenario":"axis","graph":"triangular","condition":4,"session":"delta","experiment":"reverse","subject":"Z0AQS","internal_node_id":"0.0-5.0-1.0","time_elapsed":409838,"trial_index":6,"trial_type":"html","url":"../views/src/external/stimulus.html","rt":25547},{"block":"triangular_scaffolded","helps":0,"clicked":[["answer","clicked"],["M ","false"],["B ","false"],["J ","false"],["N ","false"],["D ","false"],["O ","false"],["K ","false"],["C ","false"],["F ","false"],["I ","false"],["H ","false"],["G ","false"],["L ","false"],["E ","false"],["A ","false"]],"answer":["A"],"correct":0,"scaffold":"show-interactive","question":"duration","scenario":"axis","graph":"triangular","condition":4,"session":"delta","experiment":"reverse","subject":"Z0AQS","internal_node_id":"0.0-5.0-2.0","time_elapsed":421130,"trial_index":7,"trial_type":"html","url":"../views/src/external/stimulus.html","rt":10004},{"block":"triangular_scaffolded","helps":0,"clicked":[["answer","clicked"],["M ","false"],["B ","false"],["J ","false"],["N ","false"],["D ","false"],["O ","false"],["K ","false"],["C ","false"],["F ","false"],["I ","false"],["H ","false"],["G ","false"],["L ","false"],["E ","false"],["A ","false"]],"answer":["9"],"correct":0,"scaffold":"show-interactive","question":"midpoint","scenario":"axis","graph":"triangular","condition":4,"session":"delta","experiment":"reverse","subject":"Z0AQS","internal_node_id":"0.0-5.0-3.0","time_elapsed":447572,"trial_index":8,"trial_type":"html","url":"../views/src/external/stimulus.html","rt":25101},{"block":"triangular_scaffolded","helps":0,"clicked":[["answer","clicked"],["M ","false"],["B ","false"],["J ","false"],["N ","false"],["D ","false"],["O ","false"],["K ","false"],["C ","false"],["F ","false"],["I ","false"],["H ","false"],["G ","false"],["L ","false"],["E ","false"],["A ","false"]],"answer":["1"],"correct":0,"scaffold":"show-interactive","question":"start+overlap","scenario":"axis","graph":"triangular","condition":4,"session":"delta","experiment":"reverse","subject":"Z0AQS","internal_node_id":"0.0-5.0-4.0","time_elapsed":466003,"trial_index":9,"trial_type":"html","url":"../views/src/external/stimulus.html","rt":17159},{"block":"triangular_testing","helps":0,"answer":["M"],"clicked":[["answer","clicked"],["M ","false"],["B ","false"],["J ","false"],["N ","false"],["D ","false"],["O ","false"],["K ","false"],["C ","false"],["F ","false"],["I ","false"],["H ","false"],["G ","false"],["L ","false"],["E ","false"],["A ","false"]],"correct":0,"scaffold":"none","question":"during","scenario":"axis","graph":"triangular","condition":4,"session":"delta","experiment":"reverse","subject":"Z0AQS","internal_node_id":"0.0-6.0-7.0","time_elapsed":483676,"trial_index":10,"trial_type":"html","url":"../views/src/external/stimulus.html","rt":16418},{"block":"triangular_testing","helps":0,"answer":["H","I","K","N"],"clicked":[["answer","clicked"],["M ","false"],["B ","false"],["J ","false"],["N ","false"],["D ","false"],["O ","false"],["K ","false"],["C ","false"],["F ","false"],["I ","false"],["H ","false"],["G ","false"],["L ","false"],["E ","false"],["A ","false"]],"correct":0,"scaffold":"none","question":"meets","scenario":"axis","graph":"triangular","condition":4,"session":"delta","experiment":"reverse","subject":"Z0AQS","internal_node_id":"0.0-6.0-8.0","time_elapsed":535369,"trial_index":11,"trial_type":"html","url":"../views/src/external/stimulus.html","rt":50437},{"block":"triangular_testing","helps":0,"answer":["G","O"],"clicked":[["answer","clicked"],["M ","false"],["B ","false"],["J ","false"],["N ","false"],["D ","false"],["O ","false"],["K ","false"],["C ","false"],["F ","false"],["I ","false"],["H ","false"],["G ","false"],["L ","false"],["E ","false"],["A ","false"]],"correct":1,"scaffold":"none","question":"finishes","scenario":"axis","graph":"triangular","condition":4,"session":"delta","experiment":"reverse","subject":"Z0AQS","internal_node_id":"0.0-6.0-6.0","time_elapsed":543294,"trial_index":12,"trial_type":"html","url":"../views/src/external/stimulus.html","rt":6666},{"block":"triangular_testing","helps":0,"answer":["B","J"],"clicked":[["answer","clicked"],["M ","false"],["B ","false"],["J ","false"],["N ","false"],["D ","false"],["O ","false"],["K ","false"],["C ","false"],["F ","false"],["I ","false"],["H ","false"],["G ","false"],["L ","false"],["E ","false"],["A ","false"]],"correct":0,"scaffold":"none","question":"overlap+overlap","scenario":"axis","graph":"triangular","condition":4,"session":"delta","experiment":"reverse","subject":"Z0AQS","internal_node_id":"0.0-6.0-2.0","time_elapsed":556774,"trial_index":13,"trial_type":"html","url":"../views/src/external/stimulus.html","rt":12180},{"block":"triangular_testing","helps":0,"answer":["6"],"clicked":[["answer","clicked"],["M ","false"],["B ","false"],["J ","false"],["N ","false"],["D ","false"],["O ","false"],["K ","false"],["C ","false"],["F ","false"],["I ","false"],["H ","false"],["G ","false"],["L ","false"],["E ","false"],["A ","false"]],"correct":1,"scaffold":"none","question":"starts","scenario":"axis","graph":"triangular","condition":4,"session":"delta","experiment":"reverse","subject":"Z0AQS","internal_node_id":"0.0-6.0-5.0","time_elapsed":574355,"trial_index":14,"trial_type":"html","url":"../views/src/external/stimulus.html","rt":16295},{"block":"triangular_testing","helps":0,"answer":["A"],"clicked":[["answer","clicked"],["M ","false"],["B ","false"],["J ","false"],["N ","false"],["D ","false"],["O ","false"],["K ","false"],["C ","false"],["F ","false"],["I ","false"],["H ","false"],["G ","false"],["L ","false"],["E ","false"],["A ","false"]],"correct":1,"scaffold":"none","question":"during+overlap","scenario":"axis","graph":"triangular","condition":4,"session":"delta","experiment":"reverse","subject":"Z0AQS","internal_node_id":"0.0-6.0-3.0","time_elapsed":610521,"trial_index":15,"trial_type":"html","url":"../views/src/external/stimulus.html","rt":34909},{"block":"triangular_testing","helps":0,"answer":["9"],"clicked":[["answer","clicked"],["M ","false"],["B ","false"],["J ","false"],["N ","false"],["D ","false"],["O ","false"],["K ","false"],["C ","false"],["F ","false"],["I ","false"],["H ","false"],["G ","false"],["L ","false"],["E ","false"],["A ","false"]],"correct":1,"scaffold":"none","question":"start+duration","scenario":"axis","graph":"triangular","condition":4,"session":"delta","experiment":"reverse","subject":"Z0AQS","internal_node_id":"0.0-6.0-0.0","time_elapsed":627635,"trial_index":16,"trial_type":"html","url":"../views/src/external/stimulus.html","rt":15723},{"block":"triangular_testing","helps":0,"answer":["O"],"clicked":[["answer","clicked"],["M ","false"],["B ","false"],["J ","false"],["N ","false"],["D ","false"],["O ","false"],["K ","false"],["C ","false"],["F ","false"],["I ","false"],["H ","false"],["G ","false"],["L ","false"],["E ","false"],["A ","false"]],"correct":0,"scaffold":"none","question":"contain+duration","scenario":"axis","graph":"triangular","condition":4,"session":"delta","experiment":"reverse","subject":"Z0AQS","internal_node_id":"0.0-6.0-4.0","time_elapsed":648716,"trial_index":17,"trial_type":"html","url":"../views/src/external/stimulus.html","rt":19821},{"block":"triangular_testing","helps":0,"answer":["F","G","M","O"],"clicked":[["answer","clicked"],["M ","false"],["B ","false"],["J ","false"],["N ","false"],["D ","false"],["O ","false"],["K ","false"],["C ","false"],["F ","false"],["I ","false"],["H ","false"],["G ","false"],["L ","false"],["E ","false"],["A ","false"]],"correct":1,"scaffold":"none","question":"before+overlap","scenario":"axis","graph":"triangular","condition":4,"session":"delta","experiment":"reverse","subject":"Z0AQS","internal_node_id":"0.0-6.0-1.0","time_elapsed":686604,"trial_index":18,"trial_type":"html","url":"../views/src/external/stimulus.html","rt":36618},{"block":"triangular_testing","helps":0,"answer":["G"],"clicked":[["answer","clicked"],["M ","false"],["B ","false"],["J ","false"],["N ","false"],["D ","false"],["O ","false"],["K ","false"],["C ","false"],["F ","false"],["I ","false"],["H ","false"],["G ","false"],["L ","false"],["E ","false"],["A ","false"]],"correct":1,"scaffold":"none","question":"starts+finishes","scenario":"axis","graph":"triangular","condition":4,"session":"delta","experiment":"reverse","subject":"Z0AQS","internal_node_id":"0.0-6.0-9.0","time_elapsed":700137,"trial_index":19,"trial_type":"html","url":"../views/src/external/stimulus.html","rt":12285},{"condition":4,"session":"delta","experiment":"reverse","subject":"Z0AQS","internal_node_id":"0.0-7.0","time_elapsed":703587,"trial_index":20,"trial_type":"single-stim","block":"scenario-one","key_press":13,"stimulus":"img/longmire.png","rt":2440},{"block":"linear_scaffolded","helps":0,"clicked":[["answer","clicked"],["A ","false"],["M ","false"],["D ","false"],["N ","false"],["B ","false"],["F ","false"],["H ","false"],["G ","false"],["O ","false"],["C ","false"],["J ","false"],["I ","false"],["E ","false"],["L ","false"],["K ","false"]],"answer":["C","D","L"],"correct":1,"scaffold":"show-interactive","question":"start","scenario":"longmire","graph":"linear","condition":4,"session":"delta","experiment":"reverse","subject":"Z0AQS","internal_node_id":"0.0-8.0-0.0","time_elapsed":727045,"trial_index":21,"trial_type":"html","url":"../views/src/external/stimulus.html","rt":22207},{"block":"linear_scaffolded","helps":0,"clicked":[["answer","clicked"],["A ","false"],["M ","false"],["D ","false"],["N ","false"],["B ","false"],["F ","false"],["H ","false"],["G ","false"],["O ","false"],["C ","false"],["J ","false"],["I ","false"],["E ","false"],["L ","false"],["K ","false"]],"answer":["H","J","K","L","M","N","O"],"correct":1,"scaffold":"show-interactive","question":"end","scenario":"longmire","graph":"linear","condition":4,"session":"delta","experiment":"reverse","subject":"Z0AQS","internal_node_id":"0.0-8.0-1.0","time_elapsed":757582,"trial_index":22,"trial_type":"html","url":"../views/src/external/stimulus.html","rt":29293},{"block":"linear_scaffolded","helps":0,"clicked":[["answer","clicked"],["A ","false"],["M ","false"],["D ","false"],["N ","false"],["B ","false"],["F ","false"],["H ","false"],["G ","false"],["O ","false"],["C ","false"],["J ","false"],["I ","false"],["E ","false"],["L ","false"],["K ","false"]],"answer":["G","O"],"correct":1,"scaffold":"show-interactive","question":"duration","scenario":"longmire","graph":"linear","condition":4,"session":"delta","experiment":"reverse","subject":"Z0AQS","internal_node_id":"0.0-8.0-2.0","time_elapsed":791848,"trial_index":23,"trial_type":"html","url":"../views/src/external/stimulus.html","rt":33000},{"block":"linear_scaffolded","helps":0,"clicked":[["answer","clicked"],["A ","false"],["M ","false"],["D ","false"],["N ","false"],["B ","false"],["F ","false"],["H ","false"],["G ","false"],["O ","false"],["C ","false"],["J ","false"],["I ","false"],["E ","false"],["L ","false"],["K ","false"]],"answer":["1"],"correct":1,"scaffold":"show-interactive","question":"midpoint","scenario":"longmire","graph":"linear","condition":4,"session":"delta","experiment":"reverse","subject":"Z0AQS","internal_node_id":"0.0-8.0-3.0","time_elapsed":805737,"trial_index":24,"trial_type":"html","url":"../views/src/external/stimulus.html","rt":12625},{"block":"linear_scaffolded","helps":0,"clicked":[["answer","clicked"],["A ","false"],["M ","false"],["D ","false"],["N ","false"],["B ","false"],["F ","false"],["H ","false"],["G ","false"],["O ","false"],["C ","false"],["J ","false"],["I ","false"],["E ","false"],["L ","false"],["K ","false"]],"answer":["A"],"correct":1,"scaffold":"show-interactive","question":"start+overlap","scenario":"longmire","graph":"linear","condition":4,"session":"delta","experiment":"reverse","subject":"Z0AQS","internal_node_id":"0.0-8.0-4.0","time_elapsed":816506,"trial_index":25,"trial_type":"html","url":"../views/src/external/stimulus.html","rt":9518},{"block":"linear_testing","helps":0,"clicked":[["answer","clicked"],["A ","false"],["M ","false"],["D ","false"],["N ","false"],["B ","false"],["F ","false"],["H ","false"],["G ","false"],["O ","false"],["C ","false"],["J ","false"],["I ","false"],["E ","false"],["L ","false"],["K ","false"]],"answer":["A","M","N"],"correct":1,"scaffold":"none","question":"overlap+overlap","scenario":"longmire","graph":"linear","condition":4,"session":"delta","experiment":"reverse","subject":"Z0AQS","internal_node_id":"0.0-9.0-2.0","time_elapsed":858739,"trial_index":26,"trial_type":"html","url":"../views/src/external/stimulus.html","rt":40967},{"block":"linear_testing","helps":0,"clicked":[["answer","clicked"],["A ","false"],["M ","false"],["D ","false"],["N ","false"],["B ","false"],["F ","false"],["H ","false"],["G ","false"],["O ","false"],["C ","false"],["J ","false"],["I ","false"],["E ","false"],["L ","false"],["K ","false"]],"answer":["7","8"],"correct":0,"scaffold":"none","question":"starts","scenario":"longmire","graph":"linear","condition":4,"session":"delta","experiment":"reverse","subject":"Z0AQS","internal_node_id":"0.0-9.0-5.0","time_elapsed":904863,"trial_index":27,"trial_type":"html","url":"../views/src/external/stimulus.html","rt":44874},{"block":"linear_testing","helps":0,"clicked":[["answer","clicked"],["A ","false"],["M ","false"],["D ","false"],["N ","false"],["B ","false"],["F ","false"],["H ","false"],["G ","false"],["O ","false"],["C ","false"],["J ","false"],["I ","false"],["E ","false"],["L ","false"],["K ","false"]],"answer":["B","C","E","F","I","K","L"],"correct":0,"scaffold":"none","question":"start+duration","scenario":"longmire","graph":"linear","condition":4,"session":"delta","experiment":"reverse","subject":"Z0AQS","internal_node_id":"0.0-9.0-0.0","time_elapsed":949368,"trial_index":28,"trial_type":"html","url":"../views/src/external/stimulus.html","rt":43253},{"block":"linear_testing","helps":0,"clicked":[["answer","clicked"],["A ","false"],["M ","false"],["D ","false"],["N ","false"],["B ","false"],["F ","false"],["H ","false"],["G ","false"],["O ","false"],["C ","false"],["J ","false"],["I ","false"],["E ","false"],["L ","false"],["K ","false"]],"answer":["A","B","C","D","F","I"],"correct":1,"scaffold":"none","question":"before+overlap","scenario":"longmire","graph":"linear","condition":4,"session":"delta","experiment":"reverse","subject":"Z0AQS","internal_node_id":"0.0-9.0-1.0","time_elapsed":992649,"trial_index":29,"trial_type":"html","url":"../views/src/external/stimulus.html","rt":42029},{"block":"linear_testing","helps":0,"clicked":[["answer","clicked"],["A ","false"],["M ","false"],["D ","false"],["N ","false"],["B ","false"],["F ","false"],["H ","false"],["G ","false"],["O ","false"],["C ","false"],["J ","false"],["I ","false"],["E ","false"],["L ","false"],["K ","false"]],"answer":["B","F"],"correct":0,"scaffold":"none","question":"contain+duration","scenario":"longmire","graph":"linear","condition":4,"session":"delta","experiment":"reverse","subject":"Z0AQS","internal_node_id":"0.0-9.0-4.0","time_elapsed":1028444,"trial_index":30,"trial_type":"html","url":"../views/src/external/stimulus.html","rt":34543},{"block":"linear_testing","helps":0,"clicked":[["answer","clicked"],["A ","false"],["M ","false"],["D ","false"],["N ","false"],["B ","false"],["F ","false"],["H ","false"],["G ","false"],["O ","false"],["C ","false"],["J ","false"],["I ","false"],["E ","false"],["L ","false"],["K ","false"]],"answer":["K","L"],"correct":1,"scaffold":"none","question":"during+overlap","scenario":"longmire","graph":"linear","condition":4,"session":"delta","experiment":"reverse","subject":"Z0AQS","internal_node_id":"0.0-9.0-3.0","time_elapsed":1059128,"trial_index":31,"trial_type":"html","url":"../views/src/external/stimulus.html","rt":29422},{"block":"linear_testing","helps":0,"clicked":[["answer","clicked"],["A ","false"],["M ","false"],["D ","false"],["N ","false"],["B ","false"],["F ","false"],["H ","false"],["G ","false"],["O ","false"],["C ","false"],["J ","false"],["I ","false"],["E ","false"],["L ","false"],["K ","false"]],"answer":["4","5"],"correct":1,"scaffold":"none","question":"finishes","scenario":"longmire","graph":"linear","condition":4,"session":"delta","experiment":"reverse","subject":"Z0AQS","internal_node_id":"0.0-9.0-6.0","time_elapsed":1097840,"trial_index":32,"trial_type":"html","url":"../views/src/external/stimulus.html","rt":37428},{"block":"linear_testing","helps":0,"clicked":[["answer","clicked"],["A ","false"],["M ","false"],["D ","false"],["N ","false"],["B ","false"],["F ","false"],["H ","false"],["G ","false"],["O ","false"],["C ","false"],["J ","false"],["I ","false"],["E ","false"],["L ","false"],["K ","false"]],"answer":["C"],"correct":1,"scaffold":"none","question":"starts+finishes","scenario":"longmire","graph":"linear","condition":4,"session":"delta","experiment":"reverse","subject":"Z0AQS","internal_node_id":"0.0-9.0-9.0","time_elapsed":1115455,"trial_index":33,"trial_type":"html","url":"../views/src/external/stimulus.html","rt":16319},{"block":"linear_testing","helps":0,"clicked":[["answer","clicked"],["A ","false"],["M ","false"],["D ","false"],["N ","false"],["B ","false"],["F ","false"],["H ","false"],["G ","false"],["O ","false"],["C ","false"],["J ","false"],["I ","false"],["E ","false"],["L ","false"],["K ","false"]],"answer":["A","B","D","G","H","I","J","K","L","O"],"correct":0,"scaffold":"none","question":"during","scenario":"longmire","graph":"linear","condition":4,"session":"delta","experiment":"reverse","subject":"Z0AQS","internal_node_id":"0.0-9.0-7.0","time_elapsed":1191734,"trial_index":34,"trial_type":"html","url":"../views/src/external/stimulus.html","rt":75008},{"block":"linear_testing","helps":0,"clicked":[["answer","clicked"],["A ","false"],["M ","false"],["D ","false"],["N ","false"],["B ","false"],["F ","false"],["H ","false"],["G ","false"],["O ","false"],["C ","false"],["J ","false"],["I ","false"],["E ","false"],["L ","false"],["K ","false"]],"answer":["O"],"correct":1,"scaffold":"none","question":"meets","scenario":"longmire","graph":"linear","condition":4,"session":"delta","experiment":"reverse","subject":"Z0AQS","internal_node_id":"0.0-9.0-8.0","time_elapsed":1204165,"trial_index":35,"trial_type":"html","url":"../views/src/external/stimulus.html","rt":11006},{"condition":4,"session":"delta","experiment":"reverse","subject":"Z0AQS","internal_node_id":"0.0-10.0","time_elapsed":1207168,"trial_index":36,"trial_type":"single-stim","block":"scenario-draw","key_press":13,"stimulus":"img/jones.png","rt":1998},{"condition":4,"session":"delta","experiment":"reverse","subject":"Z0AQS","internal_node_id":"0.0-11.0","time_elapsed":1323183,"trial_index":37,"trial_type":"html","block":"instructions_drawing","url":"../views/src/external/instructions_draw.html","rt":114852},{"block":"drawingTest","clicked":[["answer","clicked"]],"answer":["I4"],"correct":0,"scaffold":"none","question":"duration","scenario":"jones","graph":"none","condition":4,"session":"delta","experiment":"reverse","subject":"Z0AQS","internal_node_id":"0.0-12.0","time_elapsed":1360539,"trial_index":38,"trial_type":"html","url":"../views/src/external/stimulus.html","rt":35921},{"block":"drawingTest","clicked":[["answer","clicked"]],"answer":["Chris"],"correct":0,"scaffold":"none","question":"overlap","scenario":"jones","graph":"none","condition":4,"session":"delta","experiment":"reverse","subject":"Z0AQS","internal_node_id":"0.0-13.0","time_elapsed":1687199,"trial_index":39,"trial_type":"html","url":"../views/src/external/stimulus.html","rt":325412},{"condition":4,"session":"delta","experiment":"reverse","subject":"Z0AQS","internal_node_id":"0.0-14.0","time_elapsed":1695144,"trial_index":40,"trial_type":"survey-text","block":"demo-1","responses":"{\"Q0\":\"20\",\"Q1\":\"USA\"}","rt":6936},{"condition":4,"session":"delta","experiment":"reverse","subject":"Z0AQS","internal_node_id":"0.0-15.0","time_elapsed":1712558,"trial_index":41,"trial_type":"survey-multi-choice","block":"demo-2","responses":"{\"Q0\":\"Other\",\"Q1\":\"Third\",\"Q2\":\"Social Sciences (incl. CogSci)\",\"Q3\":\"Female\",\"Q4\":\"the first one (linear\"}","rt":16392},{"condition":4,"session":"delta","experiment":"reverse","subject":"Z0AQS","internal_node_id":"0.0-16.0","time_elapsed":1716629,"trial_index":42,"trial_type":"html","block":"debrief","url":"../views/src/external/debrief.html","rt":2769}],"__v":0}
{"_id":{"$oid":"58c04ef0bb98090004c54ee0"},"data":[{"condition":4,"session":"delta","experiment":"reverse","subject":"6C94C","internal_node_id":"0.0-0.0","time_elapsed":938056,"trial_index":0,"trial_type":"single-stim","block":"phone","key_press":13,"stimulus":"img/phone.png","rt":938048},{"condition":4,"session":"delta","experiment":"reverse","subject":"6C94C","internal_node_id":"0.0-1.0","time_elapsed":951353,"trial_index":1,"trial_type":"html","block":"consent","url":"../views/src/external/consent.html","rt":11886},{"condition":4,"session":"delta","experiment":"reverse","subject":"6C94C","internal_node_id":"0.0-2.0","time_elapsed":962290,"trial_index":2,"trial_type":"survey-text","block":"codes","responses":"{\"Q0\":\"DELTA\",\"Q1\":\"4\"}","rt":9933},{"condition":4,"session":"delta","experiment":"reverse","subject":"6C94C","internal_node_id":"0.0-3.0","time_elapsed":984432,"trial_index":3,"trial_type":"html","block":"instructions_lab","url":"../views/src/external/instructions_lab.html","rt":20975},{"condition":4,"session":"delta","experiment":"reverse","subject":"6C94C","internal_node_id":"0.0-4.0","time_elapsed":997158,"trial_index":4,"trial_type":"single-stim","block":"scenario-two","key_press":13,"stimulus":"img/longmire.png","rt":11723},{"block":"triangular_scaffolded","helps":0,"clicked":[["answer","clicked"],["A ","false"],["M ","false"],["D ","false"],["N ","false"],["B ","false"],["F ","false"],["H ","false"],["G ","false"],["O ","false"],["C ","false"],["J ","false"],["I ","false"],["E ","false"],["L ","false"],["K ","false"]],"answer":["C","D","L"],"correct":1,"scaffold":"show-interactive","question":"start","scenario":"longmire","graph":"triangular","condition":4,"session":"delta","experiment":"reverse","subject":"6C94C","internal_node_id":"0.0-5.0-0.0","time_elapsed":1044175,"trial_index":5,"trial_type":"html","url":"../views/src/external/stimulus.html","rt":45632},{"block":"triangular_scaffolded","helps":0,"clicked":[["answer","clicked"],["A ","false"],["M ","false"],["D ","false"],["N ","false"],["B ","false"],["F ","false"],["H ","false"],["G ","false"],["O ","false"],["C ","false"],["J ","false"],["I ","false"],["E ","false"],["L ","false"],["K ","false"]],"answer":["H","J","K","L","M","N","O"],"correct":1,"scaffold":"show-interactive","question":"end","scenario":"longmire","graph":"triangular","condition":4,"session":"delta","experiment":"reverse","subject":"6C94C","internal_node_id":"0.0-5.0-1.0","time_elapsed":1095592,"trial_index":6,"trial_type":"html","url":"../views/src/external/stimulus.html","rt":50127},{"block":"triangular_scaffolded","helps":0,"clicked":[["answer","clicked"],["A ","false"],["M ","false"],["D ","false"],["N ","false"],["B ","false"],["F ","false"],["H ","false"],["G ","false"],["O ","false"],["C ","false"],["J ","false"],["I ","false"],["E ","false"],["L ","false"],["K ","false"]],"answer":["G","O"],"correct":1,"scaffold":"show-interactive","question":"duration","scenario":"longmire","graph":"triangular","condition":4,"session":"delta","experiment":"reverse","subject":"6C94C","internal_node_id":"0.0-5.0-2.0","time_elapsed":1106960,"trial_index":7,"trial_type":"html","url":"../views/src/external/stimulus.html","rt":10099},{"block":"triangular_scaffolded","helps":0,"clicked":[["answer","clicked"],["A ","false"],["M ","false"],["D ","false"],["N ","false"],["B ","false"],["F ","false"],["H ","false"],["G ","false"],["O ","false"],["C ","false"],["J ","false"],["I ","false"],["E ","false"],["L ","false"],["K ","false"]],"answer":["1"],"correct":1,"scaffold":"show-interactive","question":"midpoint","scenario":"longmire","graph":"triangular","condition":4,"session":"delta","experiment":"reverse","subject":"6C94C","internal_node_id":"0.0-5.0-3.0","time_elapsed":1125694,"trial_index":8,"trial_type":"html","url":"../views/src/external/stimulus.html","rt":17475},{"block":"triangular_scaffolded","helps":0,"clicked":[["answer","clicked"],["A ","false"],["M ","false"],["D ","false"],["N ","false"],["B ","false"],["F ","false"],["H ","false"],["G ","false"],["O ","false"],["C ","false"],["J ","false"],["I ","false"],["E ","false"],["L ","false"],["K ","false"]],"answer":["A"],"correct":1,"scaffold":"show-interactive","question":"start+overlap","scenario":"longmire","graph":"triangular","condition":4,"session":"delta","experiment":"reverse","subject":"6C94C","internal_node_id":"0.0-5.0-4.0","time_elapsed":1151209,"trial_index":9,"trial_type":"html","url":"../views/src/external/stimulus.html","rt":24266},{"block":"triangular_testing","helps":0,"answer":["A","B","C","D","E","F","G","H","I","J","L","O"],"clicked":[["answer","clicked"],["A ","false"],["M ","false"],["D ","false"],["N ","false"],["B ","false"],["F ","false"],["H ","false"],["G ","false"],["O ","false"],["C ","false"],["J ","false"],["I ","false"],["E ","true"],["L ","false"],["K ","false"]],"correct":0,"scaffold":"none","question":"during","scenario":"longmire","graph":"triangular","condition":4,"session":"delta","experiment":"reverse","subject":"6C94C","internal_node_id":"0.0-6.0-7.0","time_elapsed":1248266,"trial_index":10,"trial_type":"html","url":"../views/src/external/stimulus.html","rt":95807},{"block":"triangular_testing","helps":0,"answer":["O"],"clicked":[["answer","clicked"],["A ","false"],["M ","false"],["D ","false"],["N ","false"],["B ","false"],["F ","true"],["H ","false"],["G ","false"],["O ","false"],["C ","false"],["J ","false"],["I ","false"],["E ","false"],["L ","false"],["K ","false"]],"correct":1,"scaffold":"none","question":"meets","scenario":"longmire","graph":"triangular","condition":4,"session":"delta","experiment":"reverse","subject":"6C94C","internal_node_id":"0.0-6.0-8.0","time_elapsed":1262645,"trial_index":11,"trial_type":"html","url":"../views/src/external/stimulus.html","rt":13030},{"block":"triangular_testing","helps":0,"answer":["M"],"clicked":[["answer","clicked"],["A ","false"],["M ","false"],["D ","false"],["N ","false"],["B ","false"],["F ","false"],["H ","true"],["G ","false"],["O ","false"],["C ","false"],["J ","false"],["I ","false"],["E ","false"],["L ","false"],["K ","false"]],"correct":0,"scaffold":"none","question":"before+overlap","scenario":"longmire","graph":"triangular","condition":4,"session":"delta","experiment":"reverse","subject":"6C94C","internal_node_id":"0.0-6.0-1.0","time_elapsed":1278520,"trial_index":12,"trial_type":"html","url":"../views/src/external/stimulus.html","rt":14616},{"block":"triangular_testing","helps":0,"answer":["C"],"clicked":[["answer","clicked"],["A ","false"],["M ","false"],["D ","false"],["N ","false"],["B ","false"],["F ","false"],["H ","false"],["G ","false"],["O ","false"],["C ","false"],["J ","false"],["I ","false"],["E ","false"],["L ","false"],["K ","false"]],"correct":1,"scaffold":"none","question":"starts+finishes","scenario":"longmire","graph":"triangular","condition":4,"session":"delta","experiment":"reverse","subject":"6C94C","internal_node_id":"0.0-6.0-9.0","time_elapsed":1286803,"trial_index":13,"trial_type":"html","url":"../views/src/external/stimulus.html","rt":7029},{"block":"triangular_testing","helps":0,"answer":["6","8"],"clicked":[["answer","clicked"],["A ","false"],["M ","false"],["D ","false"],["N ","false"],["B ","false"],["F ","false"],["H ","false"],["G ","false"],["O ","false"],["C ","false"],["J ","false"],["I ","false"],["E ","false"],["L ","false"],["K ","false"]],"correct":1,"scaffold":"none","question":"starts","scenario":"longmire","graph":"triangular","condition":4,"session":"delta","experiment":"reverse","subject":"6C94C","internal_node_id":"0.0-6.0-5.0","time_elapsed":1307141,"trial_index":14,"trial_type":"html","url":"../views/src/external/stimulus.html","rt":19067},{"block":"triangular_testing","helps":0,"answer":["A","B","D","F"],"clicked":[["answer","clicked"],["A ","false"],["M ","false"],["D ","false"],["N ","false"],["B ","false"],["F ","false"],["H ","false"],["G ","false"],["O ","false"],["C ","false"],["J ","false"],["I ","false"],["E ","false"],["L ","false"],["K ","false"]],"correct":1,"scaffold":"none","question":"start+duration","scenario":"longmire","graph":"triangular","condition":4,"session":"delta","experiment":"reverse","subject":"6C94C","internal_node_id":"0.0-6.0-0.0","time_elapsed":1337828,"trial_index":15,"trial_type":"html","url":"../views/src/external/stimulus.html","rt":29431},{"block":"triangular_testing","helps":0,"answer":["4","5"],"clicked":[["answer","clicked"],["A ","false"],["M ","false"],["D ","false"],["N ","false"],["B ","false"],["F ","false"],["H ","false"],["G ","false"],["O ","false"],["C ","false"],["J ","false"],["I ","false"],["E ","false"],["L ","false"],["K ","false"]],"correct":1,"scaffold":"none","question":"finishes","scenario":"longmire","graph":"triangular","condition":4,"session":"delta","experiment":"reverse","subject":"6C94C","internal_node_id":"0.0-6.0-6.0","time_elapsed":1359084,"trial_index":16,"trial_type":"html","url":"../views/src/external/stimulus.html","rt":19993},{"block":"triangular_testing","helps":0,"answer":["A","M","N"],"clicked":[["answer","clicked"],["A ","false"],["M ","false"],["D ","true"],["N ","false"],["B ","false"],["F ","false"],["H ","false"],["G ","false"],["O ","false"],["C ","false"],["J ","false"],["I ","false"],["E ","false"],["L ","false"],["K ","false"]],"correct":1,"scaffold":"none","question":"overlap+overlap","scenario":"longmire","graph":"triangular","condition":4,"session":"delta","experiment":"reverse","subject":"6C94C","internal_node_id":"0.0-6.0-2.0","time_elapsed":1401689,"trial_index":17,"trial_type":"html","url":"../views/src/external/stimulus.html","rt":41344},{"block":"triangular_testing","helps":0,"answer":["J"],"clicked":[["answer","clicked"],["A ","false"],["M ","false"],["D ","false"],["N ","false"],["B ","false"],["F ","false"],["H ","false"],["G ","false"],["O ","false"],["C ","false"],["J ","false"],["I ","false"],["E ","false"],["L ","false"],["K ","false"]],"correct":0,"scaffold":"none","question":"during+overlap","scenario":"longmire","graph":"triangular","condition":4,"session":"delta","experiment":"reverse","subject":"6C94C","internal_node_id":"0.0-6.0-3.0","time_elapsed":1435729,"trial_index":18,"trial_type":"html","url":"../views/src/external/stimulus.html","rt":32780},{"block":"triangular_testing","helps":0,"answer":["G","O"],"clicked":[["answer","clicked"],["A ","false"],["M ","false"],["D ","false"],["N ","false"],["B ","false"],["F ","false"],["H ","false"],["G ","false"],["O ","false"],["C ","false"],["J ","false"],["I ","false"],["E ","false"],["L ","false"],["K ","false"]],"correct":1,"scaffold":"none","question":"contain+duration","scenario":"longmire","graph":"triangular","condition":4,"session":"delta","experiment":"reverse","subject":"6C94C","internal_node_id":"0.0-6.0-4.0","time_elapsed":1454923,"trial_index":19,"trial_type":"html","url":"../views/src/external/stimulus.html","rt":17940},{"condition":4,"session":"delta","experiment":"reverse","subject":"6C94C","internal_node_id":"0.0-7.0","time_elapsed":1464851,"trial_index":20,"trial_type":"single-stim","block":"scenario-one","key_press":13,"stimulus":"img/axis.png","rt":8923},{"block":"linear_scaffolded","helps":0,"clicked":[["answer","clicked"],["M ","false"],["B ","false"],["J ","false"],["N ","false"],["D ","false"],["O ","true"],["K ","false"],["C ","false"],["F ","false"],["I ","false"],["H ","true"],["G ","false"],["L ","false"],["E ","false"],["A ","false"]],"answer":["H","O"],"correct":1,"scaffold":"show-interactive","question":"start","scenario":"axis","graph":"linear","condition":4,"session":"delta","experiment":"reverse","subject":"6C94C","internal_node_id":"0.0-8.0-0.0","time_elapsed":1488134,"trial_index":21,"trial_type":"html","url":"../views/src/external/stimulus.html","rt":22024},{"block":"linear_scaffolded","helps":0,"clicked":[["answer","clicked"],["M ","false"],["B ","false"],["J ","false"],["N ","false"],["D ","false"],["O ","false"],["K ","false"],["C ","false"],["F ","false"],["I ","false"],["H ","false"],["G ","true"],["L ","false"],["E ","false"],["A ","false"]],"answer":["4"],"correct":1,"scaffold":"show-interactive","question":"end","scenario":"axis","graph":"linear","condition":4,"session":"delta","experiment":"reverse","subject":"6C94C","internal_node_id":"0.0-8.0-1.0","time_elapsed":1496753,"trial_index":22,"trial_type":"html","url":"../views/src/external/stimulus.html","rt":7349},{"block":"linear_scaffolded","helps":0,"clicked":[["answer","clicked"],["M ","false"],["B ","false"],["J ","false"],["N ","false"],["D ","false"],["O ","false"],["K ","true"],["C ","true"],["F ","true"],["I ","true"],["H ","true"],["G ","true"],["L ","true"],["E ","true"],["A ","true"]],"answer":["A","C","E","F","G","H","I","K","L"],"correct":1,"scaffold":"show-interactive","question":"duration","scenario":"axis","graph":"linear","condition":4,"session":"delta","experiment":"reverse","subject":"6C94C","internal_node_id":"0.0-8.0-2.0","time_elapsed":1536066,"trial_index":23,"trial_type":"html","url":"../views/src/external/stimulus.html","rt":38051},{"block":"linear_scaffolded","helps":0,"clicked":[["answer","clicked"],["M ","false"],["B ","true"],["J ","false"],["N ","false"],["D ","false"],["O ","false"],["K ","true"],["C ","false"],["F ","false"],["I ","false"],["H ","false"],["G ","false"],["L ","false"],["E ","false"],["A ","false"]],"answer":["8"],"correct":1,"scaffold":"show-interactive","question":"midpoint","scenario":"axis","graph":"linear","condition":4,"session":"delta","experiment":"reverse","subject":"6C94C","internal_node_id":"0.0-8.0-3.0","time_elapsed":1554891,"trial_index":24,"trial_type":"html","url":"../views/src/external/stimulus.html","rt":17569},{"block":"linear_scaffolded","helps":0,"clicked":[["answer","clicked"],["M ","false"],["B ","false"],["J ","false"],["N ","true"],["D ","true"],["O ","true"],["K ","false"],["C ","false"],["F ","true"],["I ","false"],["H ","false"],["G ","true"],["L ","true"],["E ","true"],["A ","false"]],"answer":["7"],"correct":1,"scaffold":"show-interactive","question":"start+overlap","scenario":"axis","graph":"linear","condition":4,"session":"delta","experiment":"reverse","subject":"6C94C","internal_node_id":"0.0-8.0-4.0","time_elapsed":1576942,"trial_index":25,"trial_type":"html","url":"../views/src/external/stimulus.html","rt":20721},{"block":"linear_testing","helps":0,"clicked":[["answer","clicked"],["M ","false"],["B ","false"],["J ","false"],["N ","false"],["D ","false"],["O ","false"],["K ","false"],["C ","false"],["F ","false"],["I ","false"],["H ","false"],["G ","false"],["L ","false"],["E ","false"],["A ","false"]],"answer":["F"],"correct":0,"scaffold":"none","question":"before+overlap","scenario":"axis","graph":"linear","condition":4,"session":"delta","experiment":"reverse","subject":"6C94C","internal_node_id":"0.0-9.0-1.0","time_elapsed":1600286,"trial_index":26,"trial_type":"html","url":"../views/src/external/stimulus.html","rt":22096},{"block":"linear_testing","helps":0,"clicked":[["answer","clicked"],["M ","false"],["B ","false"],["J ","false"],["N ","false"],["D ","false"],["O ","false"],["K ","false"],["C ","false"],["F ","false"],["I ","false"],["H ","false"],["G ","false"],["L ","false"],["E ","false"],["A ","false"]],"answer":["F","M"],"correct":0,"scaffold":"none","question":"during","scenario":"axis","graph":"linear","condition":4,"session":"delta","experiment":"reverse","subject":"6C94C","internal_node_id":"0.0-9.0-7.0","time_elapsed":1614802,"trial_index":27,"trial_type":"html","url":"../views/src/external/stimulus.html","rt":13263},{"block":"linear_testing","helps":0,"clicked":[["answer","clicked"],["M ","false"],["B ","false"],["J ","false"],["N ","false"],["D ","false"],["O ","false"],["K ","false"],["C ","false"],["F ","false"],["I ","false"],["H ","false"],["G ","false"],["L ","false"],["E ","false"],["A ","false"]],"answer":["6"],"correct":1,"scaffold":"none","question":"starts","scenario":"axis","graph":"linear","condition":4,"session":"delta","experiment":"reverse","subject":"6C94C","internal_node_id":"0.0-9.0-5.0","time_elapsed":1636028,"trial_index":28,"trial_type":"html","url":"../views/src/external/stimulus.html","rt":19977},{"block":"linear_testing","helps":0,"clicked":[["answer","clicked"],["M ","false"],["B ","false"],["J ","false"],["N ","false"],["D ","false"],["O ","false"],["K ","false"],["C ","false"],["F ","false"],["I ","false"],["H ","false"],["G ","false"],["L ","false"],["E ","false"],["A ","false"]],"answer":["D","M","N","O"],"correct":1,"scaffold":"none","question":"contain+duration","scenario":"axis","graph":"linear","condition":4,"session":"delta","experiment":"reverse","subject":"6C94C","internal_node_id":"0.0-9.0-4.0","time_elapsed":1659923,"trial_index":29,"trial_type":"html","url":"../views/src/external/stimulus.html","rt":22646},{"block":"linear_testing","helps":0,"clicked":[["answer","clicked"],["M ","false"],["B ","false"],["J ","false"],["N ","false"],["D ","false"],["O ","false"],["K ","false"],["C ","false"],["F ","false"],["I ","false"],["H ","false"],["G ","false"],["L ","false"],["E ","false"],["A ","false"]],"answer":["G","O"],"correct":1,"scaffold":"none","question":"finishes","scenario":"axis","graph":"linear","condition":4,"session":"delta","experiment":"reverse","subject":"6C94C","internal_node_id":"0.0-9.0-6.0","time_elapsed":1672928,"trial_index":30,"trial_type":"html","url":"../views/src/external/stimulus.html","rt":11715},{"block":"linear_testing","helps":0,"clicked":[["answer","clicked"],["M ","false"],["B ","false"],["J ","false"],["N ","false"],["D ","false"],["O ","false"],["K ","false"],["C ","false"],["F ","false"],["I ","false"],["H ","false"],["G ","false"],["L ","false"],["E ","false"],["A ","false"]],"answer":["A","B","C","E","F","J"],"correct":0,"scaffold":"none","question":"overlap+overlap","scenario":"axis","graph":"linear","condition":4,"session":"delta","experiment":"reverse","subject":"6C94C","internal_node_id":"0.0-9.0-2.0","time_elapsed":1700136,"trial_index":31,"trial_type":"html","url":"../views/src/external/stimulus.html","rt":25957},{"block":"linear_testing","helps":0,"clicked":[["answer","clicked"],["M ","false"],["B ","false"],["J ","false"],["N ","false"],["D ","false"],["O ","false"],["K ","false"],["C ","false"],["F ","false"],["I ","false"],["H ","false"],["G ","false"],["L ","false"],["E ","false"],["A ","false"]],"answer":["M","O"],"correct":0,"scaffold":"none","question":"meets","scenario":"axis","graph":"linear","condition":4,"session":"delta","experiment":"reverse","subject":"6C94C","internal_node_id":"0.0-9.0-8.0","time_elapsed":1723518,"trial_index":32,"trial_type":"html","url":"../views/src/external/stimulus.html","rt":22119},{"block":"linear_testing","helps":0,"clicked":[["answer","clicked"],["M ","false"],["B ","false"],["J ","false"],["N ","false"],["D ","false"],["O ","false"],["K ","false"],["C ","false"],["F ","false"],["I ","false"],["H ","false"],["G ","false"],["L ","false"],["E ","false"],["A ","false"]],"answer":["4"],"correct":0,"scaffold":"none","question":"start+duration","scenario":"axis","graph":"linear","condition":4,"session":"delta","experiment":"reverse","subject":"6C94C","internal_node_id":"0.0-9.0-0.0","time_elapsed":1753473,"trial_index":33,"trial_type":"html","url":"../views/src/external/stimulus.html","rt":28702},{"block":"linear_testing","helps":0,"clicked":[["answer","clicked"],["M ","false"],["B ","false"],["J ","false"],["N ","false"],["D ","false"],["O ","false"],["K ","false"],["C ","false"],["F ","false"],["I ","false"],["H ","false"],["G ","false"],["L ","false"],["E ","false"],["A ","false"]],"answer":["G"],"correct":1,"scaffold":"none","question":"starts+finishes","scenario":"axis","graph":"linear","condition":4,"session":"delta","experiment":"reverse","subject":"6C94C","internal_node_id":"0.0-9.0-9.0","time_elapsed":1788659,"trial_index":34,"trial_type":"html","url":"../views/src/external/stimulus.html","rt":33922},{"block":"linear_testing","helps":0,"clicked":[["answer","clicked"],["M ","false"],["B ","false"],["J ","false"],["N ","false"],["D ","false"],["O ","false"],["K ","false"],["C ","false"],["F ","false"],["I ","false"],["H ","false"],["G ","false"],["L ","false"],["E ","false"],["A ","false"]],"answer":["A"],"correct":1,"scaffold":"none","question":"during+overlap","scenario":"axis","graph":"linear","condition":4,"session":"delta","experiment":"reverse","subject":"6C94C","internal_node_id":"0.0-9.0-3.0","time_elapsed":1822732,"trial_index":35,"trial_type":"html","url":"../views/src/external/stimulus.html","rt":32821},{"condition":4,"session":"delta","experiment":"reverse","subject":"6C94C","internal_node_id":"0.0-10.0","time_elapsed":1833681,"trial_index":36,"trial_type":"single-stim","block":"scenario-draw","key_press":13,"stimulus":"img/jones.png","rt":9944},{"condition":4,"session":"delta","experiment":"reverse","subject":"6C94C","internal_node_id":"0.0-11.0","time_elapsed":2361691,"trial_index":37,"trial_type":"html","block":"instructions_drawing","url":"../views/src/external/instructions_draw.html","rt":526877},{"block":"drawingTest","clicked":[["answer","clicked"]],"answer":["C1"],"correct":1,"scaffold":"none","question":"duration","scenario":"jones","graph":"none","condition":4,"session":"delta","experiment":"reverse","subject":"6C94C","internal_node_id":"0.0-12.0","time_elapsed":2449576,"trial_index":38,"trial_type":"html","url":"../views/src/external/stimulus.html","rt":86461},{"block":"drawingTest","clicked":[["answer","clicked"]],"answer":["Chris","3-4pm"],"correct":1,"scaffold":"none","question":"overlap","scenario":"jones","graph":"none","condition":4,"session":"delta","experiment":"reverse","subject":"6C94C","internal_node_id":"0.0-13.0","time_elapsed":2477160,"trial_index":39,"trial_type":"html","url":"../views/src/external/stimulus.html","rt":26157},{"condition":4,"session":"delta","experiment":"reverse","subject":"6C94C","internal_node_id":"0.0-14.0","time_elapsed":2485600,"trial_index":40,"trial_type":"survey-text","block":"demo-1","responses":"{\"Q0\":\"19\",\"Q1\":\"usa\"}","rt":7432},{"condition":4,"session":"delta","experiment":"reverse","subject":"6C94C","internal_node_id":"0.0-15.0","time_elapsed":2500117,"trial_index":41,"trial_type":"survey-multi-choice","block":"demo-2","responses":"{\"Q0\":\"English\",\"Q1\":\"Second\",\"Q2\":\"Natural Sciences\",\"Q3\":\"Female\",\"Q4\":\"the second one (triangular)\"}","rt":13499},{"condition":4,"session":"delta","experiment":"reverse","subject":"6C94C","internal_node_id":"0.0-16.0","time_elapsed":2505872,"trial_index":42,"trial_type":"html","block":"debrief","url":"../views/src/external/debrief.html","rt":4594}],"__v":0}
{"_id":{"$oid":"58c04f16bb98090004c54ee1"},"data":[{"condition":2,"session":"delta","experiment":"experiment","subject":"6Z2EO","internal_node_id":"0.0-0.0","time_elapsed":540142,"trial_index":0,"trial_type":"single-stim","block":"phone","key_press":13,"stimulus":"img/phone.png","rt":540138},{"condition":2,"session":"delta","experiment":"experiment","subject":"6Z2EO","internal_node_id":"0.0-1.0","time_elapsed":549257,"trial_index":1,"trial_type":"html","block":"consent","url":"../views/src/external/consent.html","rt":7820},{"condition":2,"session":"delta","experiment":"experiment","subject":"6Z2EO","internal_node_id":"0.0-2.0","time_elapsed":558789,"trial_index":2,"trial_type":"survey-text","block":"codes","responses":"{\"Q0\":\"DELTA\",\"Q1\":\"2\"}","rt":8525},{"condition":2,"session":"delta","experiment":"experiment","subject":"6Z2EO","internal_node_id":"0.0-3.0","time_elapsed":568608,"trial_index":3,"trial_type":"html","block":"instructions_lab","url":"../views/src/external/instructions_lab.html","rt":8495},{"condition":2,"session":"delta","experiment":"experiment","subject":"6Z2EO","internal_node_id":"0.0-4.0","time_elapsed":580197,"trial_index":4,"trial_type":"single-stim","block":"scenario-one","key_press":13,"stimulus":"img/axis.png","rt":10588},{"block":"linear_scaffolded","helps":0,"clicked":[["answer","clicked"],["M ","false"],["B ","false"],["J ","false"],["N ","false"],["D ","false"],["O ","false"],["K ","false"],["C ","false"],["F ","false"],["I ","false"],["H ","false"],["G ","false"],["L ","false"],["E ","false"],["A ","false"]],"answer":["H","O"],"correct":1,"scaffold":"describe-how","question":"start","scenario":"axis","graph":"linear","condition":2,"session":"delta","experiment":"experiment","subject":"6Z2EO","internal_node_id":"0.0-5.0-0.0","time_elapsed":607798,"trial_index":5,"trial_type":"html","url":"../views/src/external/stimulus.html","rt":26159},{"block":"linear_scaffolded","helps":0,"clicked":[["answer","clicked"],["M ","false"],["B ","false"],["J ","false"],["N ","false"],["D ","false"],["O ","false"],["K ","false"],["C ","false"],["F ","false"],["I ","false"],["H ","false"],["G ","false"],["L ","false"],["E ","false"],["A ","false"]],"answer":["4"],"correct":1,"scaffold":"describe-how","question":"end","scenario":"axis","graph":"linear","condition":2,"session":"delta","experiment":"experiment","subject":"6Z2EO","internal_node_id":"0.0-5.0-1.0","time_elapsed":618483,"trial_index":6,"trial_type":"html","url":"../views/src/external/stimulus.html","rt":9346},{"block":"linear_scaffolded","helps":0,"clicked":[["answer","clicked"],["M ","false"],["B ","false"],["J ","false"],["N ","false"],["D ","false"],["O ","false"],["K ","false"],["C ","false"],["F ","false"],["I ","false"],["H ","false"],["G ","false"],["L ","false"],["E ","false"],["A ","false"]],"answer":["A","E","G","H","I","L"],"correct":0,"scaffold":"describe-how","question":"duration","scenario":"axis","graph":"linear","condition":2,"session":"delta","experiment":"experiment","subject":"6Z2EO","internal_node_id":"0.0-5.0-2.0","time_elapsed":655235,"trial_index":7,"trial_type":"html","url":"../views/src/external/stimulus.html","rt":35496},{"block":"linear_scaffolded","helps":0,"clicked":[["answer","clicked"],["M ","false"],["B ","false"],["J ","false"],["N ","false"],["D ","false"],["O ","false"],["K ","false"],["C ","false"],["F ","false"],["I ","false"],["H ","false"],["G ","false"],["L ","false"],["E ","false"],["A ","false"]],"answer":["8"],"correct":1,"scaffold":"describe-how","question":"midpoint","scenario":"axis","graph":"linear","condition":2,"session":"delta","experiment":"experiment","subject":"6Z2EO","internal_node_id":"0.0-5.0-3.0","time_elapsed":673643,"trial_index":8,"trial_type":"html","url":"../views/src/external/stimulus.html","rt":17134},{"block":"linear_scaffolded","helps":0,"clicked":[["answer","clicked"],["M ","false"],["B ","false"],["J ","false"],["N ","false"],["D ","false"],["O ","false"],["K ","false"],["C ","false"],["F ","false"],["I ","false"],["H ","false"],["G ","false"],["L ","false"],["E ","false"],["A ","false"]],"answer":["8"],"correct":0,"scaffold":"describe-how","question":"start+overlap","scenario":"axis","graph":"linear","condition":2,"session":"delta","experiment":"experiment","subject":"6Z2EO","internal_node_id":"0.0-5.0-4.0","time_elapsed":697148,"trial_index":9,"trial_type":"html","url":"../views/src/external/stimulus.html","rt":22252},{"block":"linear_testing","helps":0,"clicked":[["answer","clicked"],["M ","false"],["B ","false"],["J ","false"],["N ","false"],["D ","false"],["O ","false"],["K ","false"],["C ","false"],["F ","false"],["I ","false"],["H ","false"],["G ","false"],["L ","false"],["E ","false"],["A ","false"]],"answer":["G"],"correct":1,"scaffold":"none","question":"meets","scenario":"axis","graph":"linear","condition":2,"session":"delta","experiment":"experiment","subject":"6Z2EO","internal_node_id":"0.0-6.0-8.0","time_elapsed":722668,"trial_index":10,"trial_type":"html","url":"../views/src/external/stimulus.html","rt":24209},{"block":"linear_testing","helps":0,"clicked":[["answer","clicked"],["M ","false"],["B ","false"],["J ","false"],["N ","false"],["D ","false"],["O ","false"],["K ","false"],["C ","false"],["F ","false"],["I ","false"],["H ","false"],["G ","false"],["L ","false"],["E ","false"],["A ","false"]],"answer":["F","M","O"],"correct":1,"scaffold":"none","question":"during","scenario":"axis","graph":"linear","condition":2,"session":"delta","experiment":"experiment","subject":"6Z2EO","internal_node_id":"0.0-6.0-7.0","time_elapsed":742809,"trial_index":11,"trial_type":"html","url":"../views/src/external/stimulus.html","rt":18897},{"block":"linear_testing","helps":0,"clicked":[["answer","clicked"],["M ","false"],["B ","false"],["J ","false"],["N ","false"],["D ","false"],["O ","false"],["K ","false"],["C ","false"],["F ","false"],["I ","false"],["H ","false"],["G ","false"],["L ","false"],["E ","false"],["A ","false"]],"answer":["G"],"correct":1,"scaffold":"none","question":"starts+finishes","scenario":"axis","graph":"linear","condition":2,"session":"delta","experiment":"experiment","subject":"6Z2EO","internal_node_id":"0.0-6.0-9.0","time_elapsed":761748,"trial_index":12,"trial_type":"html","url":"../views/src/external/stimulus.html","rt":17694},{"block":"linear_testing","helps":0,"clicked":[["answer","clicked"],["M ","false"],["B ","false"],["J ","false"],["N ","false"],["D ","false"],["O ","false"],["K ","false"],["C ","false"],["F ","false"],["I ","false"],["H ","false"],["G ","false"],["L ","false"],["E ","false"],["A ","false"]],"answer":["D","M","N","O"],"correct":1,"scaffold":"none","question":"contain+duration","scenario":"axis","graph":"linear","condition":2,"session":"delta","experiment":"experiment","subject":"6Z2EO","internal_node_id":"0.0-6.0-4.0","time_elapsed":797814,"trial_index":13,"trial_type":"html","url":"../views/src/external/stimulus.html","rt":34813},{"block":"linear_testing","helps":0,"clicked":[["answer","clicked"],["M ","false"],["B ","false"],["J ","false"],["N ","false"],["D ","false"],["O ","false"],["K ","false"],["C ","false"],["F ","false"],["I ","false"],["H ","false"],["G ","false"],["L ","false"],["E ","false"],["A ","false"]],"answer":["G","O"],"correct":1,"scaffold":"none","question":"finishes","scenario":"axis","graph":"linear","condition":2,"session":"delta","experiment":"experiment","subject":"6Z2EO","internal_node_id":"0.0-6.0-6.0","time_elapsed":809126,"trial_index":14,"trial_type":"html","url":"../views/src/external/stimulus.html","rt":10069},{"block":"linear_testing","helps":0,"clicked":[["answer","clicked"],["M ","false"],["B ","false"],["J ","false"],["N ","false"],["D ","false"],["O ","false"],["K ","false"],["C ","false"],["F ","false"],["I ","false"],["H ","false"],["G ","false"],["L ","false"],["E ","false"],["A ","false"]],"answer":["F","G","M","O"],"correct":1,"scaffold":"none","question":"before+overlap","scenario":"axis","graph":"linear","condition":2,"session":"delta","experiment":"experiment","subject":"6Z2EO","internal_node_id":"0.0-6.0-1.0","time_elapsed":838309,"trial_index":15,"trial_type":"html","url":"../views/src/external/stimulus.html","rt":27842},{"block":"linear_testing","helps":0,"clicked":[["answer","clicked"],["M ","false"],["B ","false"],["J ","false"],["N ","false"],["D ","false"],["O ","false"],["K ","false"],["C ","false"],["F ","false"],["I ","false"],["H ","false"],["G ","false"],["L ","false"],["E ","false"],["A ","false"]],"answer":["6"],"correct":1,"scaffold":"none","question":"starts","scenario":"axis","graph":"linear","condition":2,"session":"delta","experiment":"experiment","subject":"6Z2EO","internal_node_id":"0.0-6.0-5.0","time_elapsed":860698,"trial_index":16,"trial_type":"html","url":"../views/src/external/stimulus.html","rt":21140},{"block":"linear_testing","helps":0,"clicked":[["answer","clicked"],["M ","false"],["B ","false"],["J ","false"],["N ","false"],["D ","false"],["O ","false"],["K ","false"],["C ","false"],["F ","false"],["I ","false"],["H ","false"],["G ","false"],["L ","false"],["E ","false"],["A ","false"]],"answer":["9"],"correct":1,"scaffold":"none","question":"start+duration","scenario":"axis","graph":"linear","condition":2,"session":"delta","experiment":"experiment","subject":"6Z2EO","internal_node_id":"0.0-6.0-0.0","time_elapsed":883609,"trial_index":17,"trial_type":"html","url":"../views/src/external/stimulus.html","rt":21664},{"block":"linear_testing","helps":0,"clicked":[["answer","clicked"],["M ","false"],["B ","false"],["J ","false"],["N ","false"],["D ","false"],["O ","false"],["K ","false"],["C ","false"],["F ","false"],["I ","false"],["H ","false"],["G ","false"],["L ","false"],["E ","false"],["A ","false"]],"answer":["A"],"correct":1,"scaffold":"none","question":"during+overlap","scenario":"axis","graph":"linear","condition":2,"session":"delta","experiment":"experiment","subject":"6Z2EO","internal_node_id":"0.0-6.0-3.0","time_elapsed":916605,"trial_index":18,"trial_type":"html","url":"../views/src/external/stimulus.html","rt":31733},{"block":"linear_testing","helps":0,"clicked":[["answer","clicked"],["M ","false"],["B ","false"],["J ","false"],["N ","false"],["D ","false"],["O ","false"],["K ","false"],["C ","false"],["F ","false"],["I ","false"],["H ","false"],["G ","false"],["L ","false"],["E ","false"],["A ","false"]],"answer":["A","B","C","E","J"],"correct":1,"scaffold":"none","question":"overlap+overlap","scenario":"axis","graph":"linear","condition":2,"session":"delta","experiment":"experiment","subject":"6Z2EO","internal_node_id":"0.0-6.0-2.0","time_elapsed":949101,"trial_index":19,"trial_type":"html","url":"../views/src/external/stimulus.html","rt":31233},{"condition":2,"session":"delta","experiment":"experiment","subject":"6Z2EO","internal_node_id":"0.0-7.0","time_elapsed":955625,"trial_index":20,"trial_type":"single-stim","block":"scenario-two","key_press":13,"stimulus":"img/longmire.png","rt":5520},{"block":"triangular_scaffolded","helps":0,"clicked":[["answer","clicked"],["A ","false"],["M ","false"],["D ","false"],["N ","false"],["B ","false"],["F ","false"],["H ","false"],["G ","false"],["O ","false"],["C ","false"],["J ","false"],["I ","false"],["E ","false"],["L ","false"],["K ","false"]],"answer":["C","D","L"],"correct":1,"scaffold":"describe-how","question":"start","scenario":"longmire","graph":"triangular","condition":2,"session":"delta","experiment":"experiment","subject":"6Z2EO","internal_node_id":"0.0-8.0-0.0","time_elapsed":990971,"trial_index":21,"trial_type":"html","url":"../views/src/external/stimulus.html","rt":34080},{"block":"triangular_scaffolded","helps":0,"clicked":[["answer","clicked"],["A ","false"],["M ","false"],["D ","false"],["N ","false"],["B ","false"],["F ","false"],["H ","false"],["G ","false"],["O ","false"],["C ","false"],["J ","false"],["I ","false"],["E ","false"],["L ","false"],["K ","false"]],"answer":["H","J","K","L","M","N","O"],"correct":1,"scaffold":"describe-how","question":"end","scenario":"longmire","graph":"triangular","condition":2,"session":"delta","experiment":"experiment","subject":"6Z2EO","internal_node_id":"0.0-8.0-1.0","time_elapsed":1016584,"trial_index":22,"trial_type":"html","url":"../views/src/external/stimulus.html","rt":24326},{"block":"triangular_scaffolded","helps":0,"clicked":[["answer","clicked"],["A ","false"],["M ","false"],["D ","false"],["N ","false"],["B ","false"],["F ","false"],["H ","false"],["G ","false"],["O ","false"],["C ","false"],["J ","false"],["I ","false"],["E ","false"],["L ","false"],["K ","false"]],"answer":["G","O"],"correct":1,"scaffold":"describe-how","question":"duration","scenario":"longmire","graph":"triangular","condition":2,"session":"delta","experiment":"experiment","subject":"6Z2EO","internal_node_id":"0.0-8.0-2.0","time_elapsed":1062259,"trial_index":23,"trial_type":"html","url":"../views/src/external/stimulus.html","rt":44417},{"block":"triangular_scaffolded","helps":0,"clicked":[["answer","clicked"],["A ","false"],["M ","false"],["D ","false"],["N ","false"],["B ","false"],["F ","false"],["H ","false"],["G ","false"],["O ","false"],["C ","false"],["J ","false"],["I ","false"],["E ","false"],["L ","false"],["K ","false"]],"answer":["1"],"correct":1,"scaffold":"describe-how","question":"midpoint","scenario":"longmire","graph":"triangular","condition":2,"session":"delta","experiment":"experiment","subject":"6Z2EO","internal_node_id":"0.0-8.0-3.0","time_elapsed":1074361,"trial_index":24,"trial_type":"html","url":"../views/src/external/stimulus.html","rt":10830},{"block":"triangular_scaffolded","helps":0,"clicked":[["answer","clicked"],["A ","false"],["M ","false"],["D ","false"],["N ","false"],["B ","false"],["F ","false"],["H ","false"],["G ","false"],["O ","false"],["C ","false"],["J ","false"],["I ","false"],["E ","false"],["L ","false"],["K ","false"]],"answer":["A"],"correct":1,"scaffold":"describe-how","question":"start+overlap","scenario":"longmire","graph":"triangular","condition":2,"session":"delta","experiment":"experiment","subject":"6Z2EO","internal_node_id":"0.0-8.0-4.0","time_elapsed":1092003,"trial_index":25,"trial_type":"html","url":"../views/src/external/stimulus.html","rt":16389},{"block":"triangular_testing","helps":0,"answer":["O"],"clicked":[["answer","clicked"],["A ","false"],["M ","false"],["D ","false"],["N ","false"],["B ","false"],["F ","false"],["H ","false"],["G ","false"],["O ","false"],["C ","false"],["J ","false"],["I ","false"],["E ","false"],["L ","false"],["K ","false"]],"correct":1,"scaffold":"none","question":"meets","scenario":"longmire","graph":"triangular","condition":2,"session":"delta","experiment":"experiment","subject":"6Z2EO","internal_node_id":"0.0-9.0-8.0","time_elapsed":1105841,"trial_index":26,"trial_type":"html","url":"../views/src/external/stimulus.html","rt":12588},{"block":"triangular_testing","helps":0,"answer":["A","B","C","D","F","I"],"clicked":[["answer","clicked"],["A ","false"],["M ","false"],["D ","false"],["N ","false"],["B ","false"],["F ","false"],["H ","false"],["G ","false"],["O ","false"],["C ","false"],["J ","false"],["I ","false"],["E ","false"],["L ","false"],["K ","false"]],"correct":1,"scaffold":"none","question":"before+overlap","scenario":"longmire","graph":"triangular","condition":2,"session":"delta","experiment":"experiment","subject":"6Z2EO","internal_node_id":"0.0-9.0-1.0","time_elapsed":1138972,"trial_index":27,"trial_type":"html","url":"../views/src/external/stimulus.html","rt":31875},{"block":"triangular_testing","helps":0,"answer":["4","5"],"clicked":[["answer","clicked"],["A ","false"],["M ","false"],["D ","false"],["N ","false"],["B ","false"],["F ","false"],["H ","false"],["G ","false"],["O ","false"],["C ","false"],["J ","false"],["I ","false"],["E ","false"],["L ","false"],["K ","false"]],"correct":1,"scaffold":"none","question":"finishes","scenario":"longmire","graph":"triangular","condition":2,"session":"delta","experiment":"experiment","subject":"6Z2EO","internal_node_id":"0.0-9.0-6.0","time_elapsed":1158935,"trial_index":28,"trial_type":"html","url":"../views/src/external/stimulus.html","rt":18706},{"block":"triangular_testing","helps":0,"answer":["A","B","D","F"],"clicked":[["answer","clicked"],["A ","false"],["M ","false"],["D ","false"],["N ","false"],["B ","false"],["F ","false"],["H ","false"],["G ","false"],["O ","false"],["C ","false"],["J ","false"],["I ","false"],["E ","false"],["L ","false"],["K ","false"]],"correct":1,"scaffold":"none","question":"start+duration","scenario":"longmire","graph":"triangular","condition":2,"session":"delta","experiment":"experiment","subject":"6Z2EO","internal_node_id":"0.0-9.0-0.0","time_elapsed":1179833,"trial_index":29,"trial_type":"html","url":"../views/src/external/stimulus.html","rt":19649},{"block":"triangular_testing","helps":0,"answer":["6","8"],"clicked":[["answer","clicked"],["A ","false"],["M ","false"],["D ","false"],["N ","false"],["B ","false"],["F ","false"],["H ","false"],["G ","false"],["O ","false"],["C ","false"],["J ","false"],["I ","false"],["E ","false"],["L ","false"],["K ","false"]],"correct":1,"scaffold":"none","question":"starts","scenario":"longmire","graph":"triangular","condition":2,"session":"delta","experiment":"experiment","subject":"6Z2EO","internal_node_id":"0.0-9.0-5.0","time_elapsed":1198854,"trial_index":30,"trial_type":"html","url":"../views/src/external/stimulus.html","rt":17760},{"block":"triangular_testing","helps":0,"answer":["B","F"],"clicked":[["answer","clicked"],["A ","false"],["M ","false"],["D ","false"],["N ","false"],["B ","false"],["F ","false"],["H ","false"],["G ","false"],["O ","false"],["C ","false"],["J ","false"],["I ","false"],["E ","false"],["L ","false"],["K ","false"]],"correct":0,"scaffold":"none","question":"contain+duration","scenario":"longmire","graph":"triangular","condition":2,"session":"delta","experiment":"experiment","subject":"6Z2EO","internal_node_id":"0.0-9.0-4.0","time_elapsed":1250175,"trial_index":31,"trial_type":"html","url":"../views/src/external/stimulus.html","rt":50068},{"block":"triangular_testing","helps":0,"answer":["B","C","D","F","G"],"clicked":[["answer","clicked"],["A ","false"],["M ","false"],["D ","false"],["N ","false"],["B ","false"],["F ","false"],["H ","false"],["G ","false"],["O ","false"],["C ","false"],["J ","false"],["I ","false"],["E ","false"],["L ","false"],["K ","false"]],"correct":1,"scaffold":"none","question":"during","scenario":"longmire","graph":"triangular","condition":2,"session":"delta","experiment":"experiment","subject":"6Z2EO","internal_node_id":"0.0-9.0-7.0","time_elapsed":1289453,"trial_index":32,"trial_type":"html","url":"../views/src/external/stimulus.html","rt":38028},{"block":"triangular_testing","helps":0,"answer":["C"],"clicked":[["answer","clicked"],["A ","false"],["M ","false"],["D ","false"],["N ","false"],["B ","false"],["F ","false"],["H ","false"],["G ","false"],["O ","false"],["C ","false"],["J ","false"],["I ","false"],["E ","false"],["L ","false"],["K ","false"]],"correct":1,"scaffold":"none","question":"starts+finishes","scenario":"longmire","graph":"triangular","condition":2,"session":"delta","experiment":"experiment","subject":"6Z2EO","internal_node_id":"0.0-9.0-9.0","time_elapsed":1309572,"trial_index":33,"trial_type":"html","url":"../views/src/external/stimulus.html","rt":18862},{"block":"triangular_testing","helps":0,"answer":["A"],"clicked":[["answer","clicked"],["A ","false"],["M ","false"],["D ","false"],["N ","false"],["B ","false"],["F ","false"],["H ","false"],["G ","false"],["O ","false"],["C ","false"],["J ","false"],["I ","false"],["E ","false"],["L ","false"],["K ","false"]],"correct":0,"scaffold":"none","question":"overlap+overlap","scenario":"longmire","graph":"triangular","condition":2,"session":"delta","experiment":"experiment","subject":"6Z2EO","internal_node_id":"0.0-9.0-2.0","time_elapsed":1340503,"trial_index":34,"trial_type":"html","url":"../views/src/external/stimulus.html","rt":29673},{"block":"triangular_testing","helps":0,"answer":["K","L"],"clicked":[["answer","clicked"],["A ","false"],["M ","false"],["D ","false"],["N ","false"],["B ","false"],["F ","false"],["H ","false"],["G ","false"],["O ","false"],["C ","false"],["J ","false"],["I ","false"],["E ","false"],["L ","false"],["K ","false"]],"correct":1,"scaffold":"none","question":"during+overlap","scenario":"longmire","graph":"triangular","condition":2,"session":"delta","experiment":"experiment","subject":"6Z2EO","internal_node_id":"0.0-9.0-3.0","time_elapsed":1381306,"trial_index":35,"trial_type":"html","url":"../views/src/external/stimulus.html","rt":39443},{"condition":2,"session":"delta","experiment":"experiment","subject":"6Z2EO","internal_node_id":"0.0-10.0","time_elapsed":1391639,"trial_index":36,"trial_type":"single-stim","block":"scenario-draw","key_press":13,"stimulus":"img/jones.png","rt":9328},{"condition":2,"session":"delta","experiment":"experiment","subject":"6Z2EO","internal_node_id":"0.0-11.0","time_elapsed":2018819,"trial_index":37,"trial_type":"html","block":"instructions_drawing","url":"../views/src/external/instructions_draw.html","rt":626039},{"block":"drawingTest","clicked":[["answer","clicked"]],"answer":["C1"],"correct":1,"scaffold":"none","question":"duration","scenario":"jones","graph":"none","condition":2,"session":"delta","experiment":"experiment","subject":"6Z2EO","internal_node_id":"0.0-12.0","time_elapsed":2057534,"trial_index":38,"trial_type":"html","url":"../views/src/external/stimulus.html","rt":37366},{"block":"drawingTest","clicked":[["answer","clicked"]],"answer":["Chris","3-4pm"],"correct":1,"scaffold":"none","question":"overlap","scenario":"jones","graph":"none","condition":2,"session":"delta","experiment":"experiment","subject":"6Z2EO","internal_node_id":"0.0-13.0","time_elapsed":2096718,"trial_index":39,"trial_type":"html","url":"../views/src/external/stimulus.html","rt":37938},{"condition":2,"session":"delta","experiment":"experiment","subject":"6Z2EO","internal_node_id":"0.0-14.0","time_elapsed":2106000,"trial_index":40,"trial_type":"survey-text","block":"demo-1","responses":"{\"Q0\":\"19\",\"Q1\":\"USA\"}","rt":8274},{"condition":2,"session":"delta","experiment":"experiment","subject":"6Z2EO","internal_node_id":"0.0-15.0","time_elapsed":2131134,"trial_index":41,"trial_type":"survey-multi-choice","block":"demo-2","responses":"{\"Q0\":\"English\",\"Q1\":\"Second\",\"Q2\":\"Natural Sciences\",\"Q3\":\"Female\",\"Q4\":\"the second one (triangular)\"}","rt":24112},{"condition":2,"session":"delta","experiment":"experiment","subject":"6Z2EO","internal_node_id":"0.0-16.0","time_elapsed":2146217,"trial_index":42,"trial_type":"html","block":"debrief","url":"../views/src/external/debrief.html","rt":13763}],"__v":0}
