{"_id":{"$oid":"58c1ae1ec1319b00043751bf"},"data":[{"condition":2,"session":"echo","experiment":"reverse","subject":"KV969","internal_node_id":"0.0-0.0","time_elapsed":4623,"trial_index":0,"trial_type":"single-stim","block":"phone","key_press":13,"stimulus":"img/phone.png","rt":4616},{"condition":2,"session":"echo","experiment":"reverse","subject":"KV969","internal_node_id":"0.0-1.0","time_elapsed":10067,"trial_index":1,"trial_type":"html","block":"consent","url":"../views/src/external/consent.html","rt":4303},{"condition":2,"session":"echo","experiment":"reverse","subject":"KV969","internal_node_id":"0.0-2.0","time_elapsed":20003,"trial_index":2,"trial_type":"survey-text","block":"codes","responses":"{\"Q0\":\"ECHO\",\"Q1\":\"2\"}","rt":8925},{"condition":2,"session":"echo","experiment":"reverse","subject":"KV969","internal_node_id":"0.0-3.0","time_elapsed":51061,"trial_index":3,"trial_type":"html","block":"instructions_lab","url":"../views/src/external/instructions_lab.html","rt":29947},{"condition":2,"session":"echo","experiment":"reverse","subject":"KV969","internal_node_id":"0.0-4.0","time_elapsed":64043,"trial_index":4,"trial_type":"single-stim","block":"scenario-two","key_press":13,"stimulus":"img/longmire.png","rt":11979},{"block":"triangular_scaffolded","helps":0,"clicked":[["answer","clicked"],["A ","false"],["M ","false"],["D ","false"],["N ","false"],["B ","false"],["F ","false"],["H ","false"],["G ","false"],["O ","false"],["C ","false"],["J ","false"],["I ","false"],["E ","false"],["L ","false"],["K ","false"]],"answer":["C","D","L"],"correct":1,"scaffold":"describe-how","question":"start","scenario":"longmire","graph":"triangular","condition":2,"session":"echo","experiment":"reverse","subject":"KV969","internal_node_id":"0.0-5.0-0.0","time_elapsed":105387,"trial_index":5,"trial_type":"html","url":"../views/src/external/stimulus.html","rt":39890},{"block":"triangular_scaffolded","helps":0,"clicked":[["answer","clicked"],["A ","false"],["M ","false"],["D ","false"],["N ","false"],["B ","false"],["F ","false"],["H ","false"],["G ","false"],["O ","false"],["C ","false"],["J ","false"],["I ","false"],["E ","false"],["L ","false"],["K ","false"]],"answer":["H","J","K","L","M","N","O"],"correct":1,"scaffold":"describe-how","question":"end","scenario":"longmire","graph":"triangular","condition":2,"session":"echo","experiment":"reverse","subject":"KV969","internal_node_id":"0.0-5.0-1.0","time_elapsed":130700,"trial_index":6,"trial_type":"html","url":"../views/src/external/stimulus.html","rt":23892},{"block":"triangular_scaffolded","helps":0,"clicked":[["answer","clicked"],["A ","false"],["M ","false"],["D ","false"],["N ","false"],["B ","false"],["F ","false"],["H ","false"],["G ","false"],["O ","false"],["C ","false"],["J ","false"],["I ","false"],["E ","false"],["L ","false"],["K ","false"]],"answer":["C","I"],"correct":0,"scaffold":"describe-how","question":"duration","scenario":"longmire","graph":"triangular","condition":2,"session":"echo","experiment":"reverse","subject":"KV969","internal_node_id":"0.0-5.0-2.0","time_elapsed":174260,"trial_index":7,"trial_type":"html","url":"../views/src/external/stimulus.html","rt":42309},{"block":"triangular_scaffolded","helps":0,"clicked":[["answer","clicked"],["A ","false"],["M ","false"],["D ","false"],["N ","false"],["B ","false"],["F ","false"],["H ","false"],["G ","false"],["O ","false"],["C ","false"],["J ","false"],["I ","false"],["E ","false"],["L ","false"],["K ","false"]],"answer":["1"],"correct":1,"scaffold":"describe-how","question":"midpoint","scenario":"longmire","graph":"triangular","condition":2,"session":"echo","experiment":"reverse","subject":"KV969","internal_node_id":"0.0-5.0-3.0","time_elapsed":207008,"trial_index":8,"trial_type":"html","url":"../views/src/external/stimulus.html","rt":31501},{"block":"triangular_scaffolded","helps":0,"clicked":[["answer","clicked"],["A ","false"],["M ","false"],["D ","false"],["N ","false"],["B ","false"],["F ","false"],["H ","false"],["G ","false"],["O ","false"],["C ","false"],["J ","false"],["I ","false"],["E ","false"],["L ","false"],["K ","false"]],"answer":["A"],"correct":1,"scaffold":"describe-how","question":"start+overlap","scenario":"longmire","graph":"triangular","condition":2,"session":"echo","experiment":"reverse","subject":"KV969","internal_node_id":"0.0-5.0-4.0","time_elapsed":223189,"trial_index":9,"trial_type":"html","url":"../views/src/external/stimulus.html","rt":14921},{"block":"triangular_testing","helps":0,"answer":["G","O"],"clicked":[["answer","clicked"],["A ","false"],["M ","false"],["D ","false"],["N ","false"],["B ","false"],["F ","false"],["H ","false"],["G ","false"],["O ","false"],["C ","false"],["J ","false"],["I ","false"],["E ","false"],["L ","false"],["K ","false"]],"correct":1,"scaffold":"none","question":"contain+duration","scenario":"longmire","graph":"triangular","condition":2,"session":"echo","experiment":"reverse","subject":"KV969","internal_node_id":"0.0-6.0-4.0","time_elapsed":238526,"trial_index":10,"trial_type":"html","url":"../views/src/external/stimulus.html","rt":14085},{"block":"triangular_testing","helps":0,"answer":["A","B","C","D","F","I"],"clicked":[["answer","clicked"],["A ","false"],["M ","false"],["D ","false"],["N ","false"],["B ","false"],["F ","false"],["H ","false"],["G ","false"],["O ","false"],["C ","false"],["J ","false"],["I ","false"],["E ","false"],["L ","false"],["K ","false"]],"correct":1,"scaffold":"none","question":"before+overlap","scenario":"longmire","graph":"triangular","condition":2,"session":"echo","experiment":"reverse","subject":"KV969","internal_node_id":"0.0-6.0-1.0","time_elapsed":297841,"trial_index":11,"trial_type":"html","url":"../views/src/external/stimulus.html","rt":58066},{"block":"triangular_testing","helps":0,"answer":["L"],"clicked":[["answer","clicked"],["A ","false"],["M ","false"],["D ","false"],["N ","false"],["B ","false"],["F ","false"],["H ","false"],["G ","false"],["O ","false"],["C ","false"],["J ","false"],["I ","false"],["E ","false"],["L ","false"],["K ","false"]],"correct":0,"scaffold":"none","question":"during+overlap","scenario":"longmire","graph":"triangular","condition":2,"session":"echo","experiment":"reverse","subject":"KV969","internal_node_id":"0.0-6.0-3.0","time_elapsed":340445,"trial_index":12,"trial_type":"html","url":"../views/src/external/stimulus.html","rt":41349},{"block":"triangular_testing","helps":0,"answer":["C"],"clicked":[["answer","clicked"],["A ","false"],["M ","false"],["D ","false"],["N ","false"],["B ","false"],["F ","false"],["H ","false"],["G ","false"],["O ","false"],["C ","false"],["J ","false"],["I ","false"],["E ","false"],["L ","false"],["K ","false"]],"correct":1,"scaffold":"none","question":"starts+finishes","scenario":"longmire","graph":"triangular","condition":2,"session":"echo","experiment":"reverse","subject":"KV969","internal_node_id":"0.0-6.0-9.0","time_elapsed":359788,"trial_index":13,"trial_type":"html","url":"../views/src/external/stimulus.html","rt":18086},{"block":"triangular_testing","helps":0,"answer":["A","G"],"clicked":[["answer","clicked"],["A ","false"],["M ","false"],["D ","false"],["N ","false"],["B ","false"],["F ","false"],["H ","false"],["G ","false"],["O ","false"],["C ","false"],["J ","false"],["I ","false"],["E ","false"],["L ","false"],["K ","false"]],"correct":0,"scaffold":"none","question":"during","scenario":"longmire","graph":"triangular","condition":2,"session":"echo","experiment":"reverse","subject":"KV969","internal_node_id":"0.0-6.0-7.0","time_elapsed":392581,"trial_index":14,"trial_type":"html","url":"../views/src/external/stimulus.html","rt":31539},{"block":"triangular_testing","helps":0,"answer":["6"],"clicked":[["answer","clicked"],["A ","false"],["M ","false"],["D ","false"],["N ","false"],["B ","false"],["F ","false"],["H ","false"],["G ","false"],["O ","false"],["C ","false"],["J ","false"],["I ","false"],["E ","false"],["L ","false"],["K ","false"]],"correct":0,"scaffold":"none","question":"starts","scenario":"longmire","graph":"triangular","condition":2,"session":"echo","experiment":"reverse","subject":"KV969","internal_node_id":"0.0-6.0-5.0","time_elapsed":451552,"trial_index":15,"trial_type":"html","url":"../views/src/external/stimulus.html","rt":57717},{"block":"triangular_testing","helps":0,"answer":["4","5"],"clicked":[["answer","clicked"],["A ","false"],["M ","false"],["D ","false"],["N ","false"],["B ","false"],["F ","false"],["H ","false"],["G ","false"],["O ","false"],["C ","false"],["J ","false"],["I ","false"],["E ","false"],["L ","false"],["K ","false"]],"correct":1,"scaffold":"none","question":"finishes","scenario":"longmire","graph":"triangular","condition":2,"session":"echo","experiment":"reverse","subject":"KV969","internal_node_id":"0.0-6.0-6.0","time_elapsed":469489,"trial_index":16,"trial_type":"html","url":"../views/src/external/stimulus.html","rt":16688},{"block":"triangular_testing","helps":0,"answer":["O"],"clicked":[["answer","clicked"],["A ","false"],["M ","false"],["D ","false"],["N ","false"],["B ","false"],["F ","false"],["H ","false"],["G ","false"],["O ","false"],["C ","false"],["J ","false"],["I ","false"],["E ","false"],["L ","false"],["K ","false"]],"correct":1,"scaffold":"none","question":"meets","scenario":"longmire","graph":"triangular","condition":2,"session":"echo","experiment":"reverse","subject":"KV969","internal_node_id":"0.0-6.0-8.0","time_elapsed":486121,"trial_index":17,"trial_type":"html","url":"../views/src/external/stimulus.html","rt":15367},{"block":"triangular_testing","helps":0,"answer":["A","M","N"],"clicked":[["answer","clicked"],["A ","false"],["M ","false"],["D ","false"],["N ","false"],["B ","false"],["F ","false"],["H ","false"],["G ","false"],["O ","false"],["C ","false"],["J ","false"],["I ","false"],["E ","false"],["L ","false"],["K ","false"]],"correct":1,"scaffold":"none","question":"overlap+overlap","scenario":"longmire","graph":"triangular","condition":2,"session":"echo","experiment":"reverse","subject":"KV969","internal_node_id":"0.0-6.0-2.0","time_elapsed":522572,"trial_index":18,"trial_type":"html","url":"../views/src/external/stimulus.html","rt":35200},{"block":"triangular_testing","helps":0,"answer":["A","B","D","H","M","N"],"clicked":[["answer","clicked"],["A ","false"],["M ","false"],["D ","false"],["N ","false"],["B ","false"],["F ","false"],["H ","false"],["G ","false"],["O ","false"],["C ","false"],["J ","false"],["I ","false"],["E ","false"],["L ","false"],["K ","false"]],"correct":0,"scaffold":"none","question":"start+duration","scenario":"longmire","graph":"triangular","condition":2,"session":"echo","experiment":"reverse","subject":"KV969","internal_node_id":"0.0-6.0-0.0","time_elapsed":555526,"trial_index":19,"trial_type":"html","url":"../views/src/external/stimulus.html","rt":31687},{"condition":2,"session":"echo","experiment":"reverse","subject":"KV969","internal_node_id":"0.0-7.0","time_elapsed":570404,"trial_index":20,"trial_type":"single-stim","block":"scenario-one","key_press":13,"stimulus":"img/axis.png","rt":13872},{"block":"linear_scaffolded","helps":0,"clicked":[["answer","clicked"],["M ","false"],["B ","false"],["J ","false"],["N ","false"],["D ","false"],["O ","false"],["K ","false"],["C ","false"],["F ","false"],["I ","false"],["H ","false"],["G ","false"],["L ","false"],["E ","false"],["A ","false"]],"answer":["H","O"],"correct":1,"scaffold":"describe-how","question":"start","scenario":"axis","graph":"linear","condition":2,"session":"echo","experiment":"reverse","subject":"KV969","internal_node_id":"0.0-8.0-0.0","time_elapsed":602974,"trial_index":21,"trial_type":"html","url":"../views/src/external/stimulus.html","rt":31322},{"block":"linear_scaffolded","helps":0,"clicked":[["answer","clicked"],["M ","false"],["B ","false"],["J ","false"],["N ","false"],["D ","false"],["O ","false"],["K ","false"],["C ","false"],["F ","false"],["I ","false"],["H ","false"],["G ","false"],["L ","false"],["E ","false"],["A ","false"]],"answer":["4"],"correct":1,"scaffold":"describe-how","question":"end","scenario":"axis","graph":"linear","condition":2,"session":"echo","experiment":"reverse","subject":"KV969","internal_node_id":"0.0-8.0-1.0","time_elapsed":614757,"trial_index":22,"trial_type":"html","url":"../views/src/external/stimulus.html","rt":10407},{"block":"linear_scaffolded","helps":0,"clicked":[["answer","clicked"],["M ","false"],["B ","false"],["J ","false"],["N ","false"],["D ","false"],["O ","false"],["K ","false"],["C ","false"],["F ","false"],["I ","false"],["H ","false"],["G ","false"],["L ","false"],["E ","false"],["A ","false"]],"answer":["A","C","E","F","G","H","I","K","L"],"correct":1,"scaffold":"describe-how","question":"duration","scenario":"axis","graph":"linear","condition":2,"session":"echo","experiment":"reverse","subject":"KV969","internal_node_id":"0.0-8.0-2.0","time_elapsed":654953,"trial_index":23,"trial_type":"html","url":"../views/src/external/stimulus.html","rt":38944},{"block":"linear_scaffolded","helps":0,"clicked":[["answer","clicked"],["M ","false"],["B ","false"],["J ","false"],["N ","false"],["D ","false"],["O ","false"],["K ","false"],["C ","false"],["F ","false"],["I ","false"],["H ","false"],["G ","false"],["L ","false"],["E ","false"],["A ","false"]],"answer":["8"],"correct":1,"scaffold":"describe-how","question":"midpoint","scenario":"axis","graph":"linear","condition":2,"session":"echo","experiment":"reverse","subject":"KV969","internal_node_id":"0.0-8.0-3.0","time_elapsed":675093,"trial_index":24,"trial_type":"html","url":"../views/src/external/stimulus.html","rt":18888},{"block":"linear_scaffolded","helps":0,"clicked":[["answer","clicked"],["M ","false"],["B ","false"],["J ","false"],["N ","false"],["D ","false"],["O ","false"],["K ","false"],["C ","false"],["F ","false"],["I ","false"],["H ","false"],["G ","false"],["L ","false"],["E ","false"],["A ","false"]],"answer":["7"],"correct":1,"scaffold":"describe-how","question":"start+overlap","scenario":"axis","graph":"linear","condition":2,"session":"echo","experiment":"reverse","subject":"KV969","internal_node_id":"0.0-8.0-4.0","time_elapsed":694722,"trial_index":25,"trial_type":"html","url":"../views/src/external/stimulus.html","rt":18374},{"block":"linear_testing","helps":0,"clicked":[["answer","clicked"],["M ","false"],["B ","false"],["J ","false"],["N ","false"],["D ","false"],["O ","false"],["K ","false"],["C ","false"],["F ","false"],["I ","false"],["H ","false"],["G ","false"],["L ","false"],["E ","false"],["A ","false"]],"answer":["M","O"],"correct":0,"scaffold":"none","question":"during","scenario":"axis","graph":"linear","condition":2,"session":"echo","experiment":"reverse","subject":"KV969","internal_node_id":"0.0-9.0-7.0","time_elapsed":723428,"trial_index":26,"trial_type":"html","url":"../views/src/external/stimulus.html","rt":27452},{"block":"linear_testing","helps":0,"clicked":[["answer","clicked"],["M ","false"],["B ","false"],["J ","false"],["N ","false"],["D ","false"],["O ","false"],["K ","false"],["C ","false"],["F ","false"],["I ","false"],["H ","false"],["G ","false"],["L ","false"],["E ","false"],["A ","false"]],"answer":["G","O"],"correct":1,"scaffold":"none","question":"finishes","scenario":"axis","graph":"linear","condition":2,"session":"echo","experiment":"reverse","subject":"KV969","internal_node_id":"0.0-9.0-6.0","time_elapsed":735252,"trial_index":27,"trial_type":"html","url":"../views/src/external/stimulus.html","rt":10571},{"block":"linear_testing","helps":0,"clicked":[["answer","clicked"],["M ","false"],["B ","false"],["J ","false"],["N ","false"],["D ","false"],["O ","false"],["K ","false"],["C ","false"],["F ","false"],["I ","false"],["H ","false"],["G ","false"],["L ","false"],["E ","false"],["A ","false"]],"answer":["G"],"correct":1,"scaffold":"none","question":"starts+finishes","scenario":"axis","graph":"linear","condition":2,"session":"echo","experiment":"reverse","subject":"KV969","internal_node_id":"0.0-9.0-9.0","time_elapsed":746509,"trial_index":28,"trial_type":"html","url":"../views/src/external/stimulus.html","rt":10001},{"block":"linear_testing","helps":0,"clicked":[["answer","clicked"],["M ","false"],["B ","false"],["J ","false"],["N ","false"],["D ","false"],["O ","false"],["K ","false"],["C ","false"],["F ","false"],["I ","false"],["H ","false"],["G ","false"],["L ","false"],["E ","false"],["A ","false"]],"answer":["A"],"correct":1,"scaffold":"none","question":"during+overlap","scenario":"axis","graph":"linear","condition":2,"session":"echo","experiment":"reverse","subject":"KV969","internal_node_id":"0.0-9.0-3.0","time_elapsed":780445,"trial_index":29,"trial_type":"html","url":"../views/src/external/stimulus.html","rt":32687},{"block":"linear_testing","helps":0,"clicked":[["answer","clicked"],["M ","false"],["B ","false"],["J ","false"],["N ","false"],["D ","false"],["O ","false"],["K ","false"],["C ","false"],["F ","false"],["I ","false"],["H ","false"],["G ","false"],["L ","false"],["E ","false"],["A ","false"]],"answer":["G"],"correct":1,"scaffold":"none","question":"meets","scenario":"axis","graph":"linear","condition":2,"session":"echo","experiment":"reverse","subject":"KV969","internal_node_id":"0.0-9.0-8.0","time_elapsed":797961,"trial_index":30,"trial_type":"html","url":"../views/src/external/stimulus.html","rt":16270},{"block":"linear_testing","helps":0,"clicked":[["answer","clicked"],["M ","false"],["B ","false"],["J ","false"],["N ","false"],["D ","false"],["O ","false"],["K ","false"],["C ","false"],["F ","false"],["I ","false"],["H ","false"],["G ","false"],["L ","false"],["E ","false"],["A ","false"]],"answer":["D","H","N","O"],"correct":0,"scaffold":"none","question":"contain+duration","scenario":"axis","graph":"linear","condition":2,"session":"echo","experiment":"reverse","subject":"KV969","internal_node_id":"0.0-9.0-4.0","time_elapsed":823672,"trial_index":31,"trial_type":"html","url":"../views/src/external/stimulus.html","rt":24465},{"block":"linear_testing","helps":0,"clicked":[["answer","clicked"],["M ","false"],["B ","false"],["J ","false"],["N ","false"],["D ","false"],["O ","false"],["K ","false"],["C ","false"],["F ","false"],["I ","false"],["H ","false"],["G ","false"],["L ","false"],["E ","false"],["A ","false"]],"answer":["F","G","M","O"],"correct":1,"scaffold":"none","question":"before+overlap","scenario":"axis","graph":"linear","condition":2,"session":"echo","experiment":"reverse","subject":"KV969","internal_node_id":"0.0-9.0-1.0","time_elapsed":864260,"trial_index":32,"trial_type":"html","url":"../views/src/external/stimulus.html","rt":39304},{"block":"linear_testing","helps":0,"clicked":[["answer","clicked"],["M ","false"],["B ","false"],["J ","false"],["N ","false"],["D ","false"],["O ","false"],["K ","false"],["C ","false"],["F ","false"],["I ","false"],["H ","false"],["G ","false"],["L ","false"],["E ","false"],["A ","false"]],"answer":["2","3"],"correct":0,"scaffold":"none","question":"starts","scenario":"axis","graph":"linear","condition":2,"session":"echo","experiment":"reverse","subject":"KV969","internal_node_id":"0.0-9.0-5.0","time_elapsed":888370,"trial_index":33,"trial_type":"html","url":"../views/src/external/stimulus.html","rt":22859},{"block":"linear_testing","helps":0,"clicked":[["answer","clicked"],["M ","false"],["B ","false"],["J ","false"],["N ","false"],["D ","false"],["O ","false"],["K ","false"],["C ","false"],["F ","false"],["I ","false"],["H ","false"],["G ","false"],["L ","false"],["E ","false"],["A ","false"]],"answer":["9"],"correct":1,"scaffold":"none","question":"start+duration","scenario":"axis","graph":"linear","condition":2,"session":"echo","experiment":"reverse","subject":"KV969","internal_node_id":"0.0-9.0-0.0","time_elapsed":903641,"trial_index":34,"trial_type":"html","url":"../views/src/external/stimulus.html","rt":14015},{"block":"linear_testing","helps":0,"clicked":[["answer","clicked"],["M ","false"],["B ","false"],["J ","false"],["N ","false"],["D ","false"],["O ","false"],["K ","false"],["C ","false"],["F ","false"],["I ","false"],["H ","false"],["G ","false"],["L ","false"],["E ","false"],["A ","false"]],"answer":["A","B","C","E","J"],"correct":1,"scaffold":"none","question":"overlap+overlap","scenario":"axis","graph":"linear","condition":2,"session":"echo","experiment":"reverse","subject":"KV969","internal_node_id":"0.0-9.0-2.0","time_elapsed":947685,"trial_index":35,"trial_type":"html","url":"../views/src/external/stimulus.html","rt":42790},{"condition":2,"session":"echo","experiment":"reverse","subject":"KV969","internal_node_id":"0.0-10.0","time_elapsed":959786,"trial_index":36,"trial_type":"single-stim","block":"scenario-draw","key_press":13,"stimulus":"img/jones.png","rt":11096},{"condition":2,"session":"echo","experiment":"reverse","subject":"KV969","internal_node_id":"0.0-11.0","time_elapsed":1316339,"trial_index":37,"trial_type":"html","block":"instructions_drawing","url":"../views/src/external/instructions_draw.html","rt":355404},{"block":"drawingTest","clicked":[["answer","clicked"]],"answer":["A1"],"correct":0,"scaffold":"none","question":"duration","scenario":"jones","graph":"none","condition":2,"session":"echo","experiment":"reverse","subject":"KV969","internal_node_id":"0.0-12.0","time_elapsed":1383841,"trial_index":38,"trial_type":"html","url":"../views/src/external/stimulus.html","rt":66098},{"block":"drawingTest","clicked":[["answer","clicked"]],"answer":["Chris","3-4pm"],"correct":1,"scaffold":"none","question":"overlap","scenario":"jones","graph":"none","condition":2,"session":"echo","experiment":"reverse","subject":"KV969","internal_node_id":"0.0-13.0","time_elapsed":1469804,"trial_index":39,"trial_type":"html","url":"../views/src/external/stimulus.html","rt":84623},{"condition":2,"session":"echo","experiment":"reverse","subject":"KV969","internal_node_id":"0.0-14.0","time_elapsed":1480334,"trial_index":40,"trial_type":"survey-text","block":"demo-1","responses":"{\"Q0\":\"22\",\"Q1\":\"United States of America\"}","rt":9524},{"condition":2,"session":"echo","experiment":"reverse","subject":"KV969","internal_node_id":"0.0-15.0","time_elapsed":1498740,"trial_index":41,"trial_type":"survey-multi-choice","block":"demo-2","responses":"{\"Q0\":\"English\",\"Q1\":\"Fifth\",\"Q2\":\"Social Sciences (incl. CogSci)\",\"Q3\":\"Female\",\"Q4\":\"the first one (linear\"}","rt":17392},{"condition":2,"session":"echo","experiment":"reverse","subject":"KV969","internal_node_id":"0.0-16.0","time_elapsed":1511963,"trial_index":42,"trial_type":"html","block":"debrief","url":"../views/src/external/debrief.html","rt":11999}],"__v":0}
{"_id":{"$oid":"58c1ae42c1319b00043751c0"},"data":[{"condition":4,"session":"echo","experiment":"reverse","subject":"AX24A","internal_node_id":"0.0-0.0","time_elapsed":17853,"trial_index":0,"trial_type":"single-stim","block":"phone","key_press":13,"stimulus":"img/phone.png","rt":17847},{"condition":4,"session":"echo","experiment":"reverse","subject":"AX24A","internal_node_id":"0.0-1.0","time_elapsed":22525,"trial_index":1,"trial_type":"html","block":"consent","url":"../views/src/external/consent.html","rt":3480},{"condition":4,"session":"echo","experiment":"reverse","subject":"AX24A","internal_node_id":"0.0-2.0","time_elapsed":30565,"trial_index":2,"trial_type":"survey-text","block":"codes","responses":"{\"Q0\":\"ECHO\",\"Q1\":\"4\"}","rt":7032},{"condition":4,"session":"echo","experiment":"reverse","subject":"AX24A","internal_node_id":"0.0-3.0","time_elapsed":37559,"trial_index":3,"trial_type":"html","block":"instructions_lab","url":"../views/src/external/instructions_lab.html","rt":5797},{"condition":4,"session":"echo","experiment":"reverse","subject":"AX24A","internal_node_id":"0.0-4.0","time_elapsed":48937,"trial_index":4,"trial_type":"single-stim","block":"scenario-two","key_press":13,"stimulus":"img/axis.png","rt":10375},{"block":"triangular_scaffolded","helps":0,"clicked":[["answer","clicked"],["M ","false"],["B ","false"],["J ","false"],["N ","false"],["D ","false"],["O ","false"],["K ","false"],["C ","false"],["F ","false"],["I ","false"],["H ","false"],["G ","false"],["L ","false"],["E ","false"],["A ","false"]],"answer":["G"],"correct":0,"scaffold":"show-interactive","question":"start","scenario":"axis","graph":"triangular","condition":4,"session":"echo","experiment":"reverse","subject":"AX24A","internal_node_id":"0.0-5.0-0.0","time_elapsed":72584,"trial_index":5,"trial_type":"html","url":"../views/src/external/stimulus.html","rt":22234},{"block":"triangular_scaffolded","helps":0,"clicked":[["answer","clicked"],["M ","false"],["B ","false"],["J ","false"],["N ","false"],["D ","false"],["O ","false"],["K ","false"],["C ","false"],["F ","false"],["I ","false"],["H ","false"],["G ","false"],["L ","false"],["E ","false"],["A ","false"]],"answer":["6"],"correct":0,"scaffold":"show-interactive","question":"end","scenario":"axis","graph":"triangular","condition":4,"session":"echo","experiment":"reverse","subject":"AX24A","internal_node_id":"0.0-5.0-1.0","time_elapsed":90348,"trial_index":6,"trial_type":"html","url":"../views/src/external/stimulus.html","rt":16510},{"block":"triangular_scaffolded","helps":0,"clicked":[["answer","clicked"],["M ","false"],["B ","false"],["J ","false"],["N ","false"],["D ","false"],["O ","false"],["K ","false"],["C ","false"],["F ","false"],["I ","false"],["H ","false"],["G ","false"],["L ","false"],["E ","false"],["A ","false"]],"answer":["A","C","E","F","G","H","I","K","L"],"correct":1,"scaffold":"show-interactive","question":"duration","scenario":"axis","graph":"triangular","condition":4,"session":"echo","experiment":"reverse","subject":"AX24A","internal_node_id":"0.0-5.0-2.0","time_elapsed":122648,"trial_index":7,"trial_type":"html","url":"../views/src/external/stimulus.html","rt":31056},{"block":"triangular_scaffolded","helps":0,"clicked":[["answer","clicked"],["M ","false"],["B ","false"],["J ","false"],["N ","false"],["D ","false"],["O ","false"],["K ","false"],["C ","false"],["F ","false"],["I ","false"],["H ","false"],["G ","false"],["L ","false"],["E ","false"],["A ","false"]],"answer":["10"],"correct":0,"scaffold":"show-interactive","question":"midpoint","scenario":"axis","graph":"triangular","condition":4,"session":"echo","experiment":"reverse","subject":"AX24A","internal_node_id":"0.0-5.0-3.0","time_elapsed":172034,"trial_index":8,"trial_type":"html","url":"../views/src/external/stimulus.html","rt":48139},{"block":"triangular_scaffolded","helps":0,"clicked":[["answer","clicked"],["M ","false"],["B ","false"],["J ","false"],["N ","false"],["D ","false"],["O ","false"],["K ","false"],["C ","false"],["F ","false"],["I ","false"],["H ","false"],["G ","false"],["L ","false"],["E ","false"],["A ","false"]],"answer":["2"],"correct":0,"scaffold":"show-interactive","question":"start+overlap","scenario":"axis","graph":"triangular","condition":4,"session":"echo","experiment":"reverse","subject":"AX24A","internal_node_id":"0.0-5.0-4.0","time_elapsed":215490,"trial_index":9,"trial_type":"html","url":"../views/src/external/stimulus.html","rt":42194},{"block":"triangular_testing","helps":0,"answer":["O"],"clicked":[["answer","clicked"],["M ","false"],["B ","false"],["J ","false"],["N ","false"],["D ","false"],["O ","false"],["K ","false"],["C ","false"],["F ","false"],["I ","false"],["H ","false"],["G ","false"],["L ","false"],["E ","false"],["A ","false"]],"correct":0,"scaffold":"none","question":"during+overlap","scenario":"axis","graph":"triangular","condition":4,"session":"echo","experiment":"reverse","subject":"AX24A","internal_node_id":"0.0-6.0-3.0","time_elapsed":260335,"trial_index":10,"trial_type":"html","url":"../views/src/external/stimulus.html","rt":43594},{"block":"triangular_testing","helps":0,"answer":["D","N","O"],"clicked":[["answer","clicked"],["M ","false"],["B ","false"],["J ","false"],["N ","false"],["D ","false"],["O ","false"],["K ","false"],["C ","false"],["F ","false"],["I ","false"],["H ","false"],["G ","false"],["L ","false"],["E ","false"],["A ","false"]],"correct":0,"scaffold":"none","question":"overlap+overlap","scenario":"axis","graph":"triangular","condition":4,"session":"echo","experiment":"reverse","subject":"AX24A","internal_node_id":"0.0-6.0-2.0","time_elapsed":302357,"trial_index":11,"trial_type":"html","url":"../views/src/external/stimulus.html","rt":40771},{"block":"triangular_testing","helps":0,"answer":["1"],"clicked":[["answer","clicked"],["M ","false"],["B ","false"],["J ","false"],["N ","false"],["D ","false"],["O ","false"],["K ","false"],["C ","false"],["F ","false"],["I ","false"],["H ","false"],["G ","false"],["L ","false"],["E ","false"],["A ","false"]],"correct":0,"scaffold":"none","question":"starts","scenario":"axis","graph":"triangular","condition":4,"session":"echo","experiment":"reverse","subject":"AX24A","internal_node_id":"0.0-6.0-5.0","time_elapsed":328432,"trial_index":12,"trial_type":"html","url":"../views/src/external/stimulus.html","rt":24826},{"block":"triangular_testing","helps":0,"answer":["F"],"clicked":[["answer","clicked"],["M ","false"],["B ","false"],["J ","false"],["N ","false"],["D ","false"],["O ","false"],["K ","false"],["C ","false"],["F ","false"],["I ","false"],["H ","false"],["G ","false"],["L ","false"],["E ","false"],["A ","false"]],"correct":0,"scaffold":"none","question":"meets","scenario":"axis","graph":"triangular","condition":4,"session":"echo","experiment":"reverse","subject":"AX24A","internal_node_id":"0.0-6.0-8.0","time_elapsed":389320,"trial_index":13,"trial_type":"html","url":"../views/src/external/stimulus.html","rt":59639},{"block":"triangular_testing","helps":0,"answer":["M"],"clicked":[["answer","clicked"],["M ","false"],["B ","false"],["J ","false"],["N ","false"],["D ","false"],["O ","false"],["K ","false"],["C ","false"],["F ","false"],["I ","false"],["H ","false"],["G ","false"],["L ","false"],["E ","false"],["A ","false"]],"correct":0,"scaffold":"none","question":"before+overlap","scenario":"axis","graph":"triangular","condition":4,"session":"echo","experiment":"reverse","subject":"AX24A","internal_node_id":"0.0-6.0-1.0","time_elapsed":420148,"trial_index":14,"trial_type":"html","url":"../views/src/external/stimulus.html","rt":29413},{"block":"triangular_testing","helps":0,"answer":["10","12"],"clicked":[["answer","clicked"],["M ","false"],["B ","false"],["J ","false"],["N ","false"],["D ","false"],["O ","false"],["K ","false"],["C ","false"],["F ","false"],["I ","false"],["H ","false"],["G ","false"],["L ","false"],["E ","false"],["A ","false"]],"correct":0,"scaffold":"none","question":"start+duration","scenario":"axis","graph":"triangular","condition":4,"session":"echo","experiment":"reverse","subject":"AX24A","internal_node_id":"0.0-6.0-0.0","time_elapsed":460624,"trial_index":15,"trial_type":"html","url":"../views/src/external/stimulus.html","rt":39209},{"block":"triangular_testing","helps":0,"answer":["A"],"clicked":[["answer","clicked"],["M ","false"],["B ","false"],["J ","false"],["N ","false"],["D ","false"],["O ","false"],["K ","false"],["C ","false"],["F ","false"],["I ","false"],["H ","false"],["G ","false"],["L ","false"],["E ","false"],["A ","false"]],"correct":0,"scaffold":"none","question":"during","scenario":"axis","graph":"triangular","condition":4,"session":"echo","experiment":"reverse","subject":"AX24A","internal_node_id":"0.0-6.0-7.0","time_elapsed":483814,"trial_index":16,"trial_type":"html","url":"../views/src/external/stimulus.html","rt":21928},{"block":"triangular_testing","helps":0,"answer":["D","N"],"clicked":[["answer","clicked"],["M ","false"],["B ","false"],["J ","false"],["N ","false"],["D ","false"],["O ","false"],["K ","false"],["C ","false"],["F ","false"],["I ","false"],["H ","false"],["G ","false"],["L ","false"],["E ","false"],["A ","false"]],"correct":0,"scaffold":"none","question":"contain+duration","scenario":"axis","graph":"triangular","condition":4,"session":"echo","experiment":"reverse","subject":"AX24A","internal_node_id":"0.0-6.0-4.0","time_elapsed":510858,"trial_index":17,"trial_type":"html","url":"../views/src/external/stimulus.html","rt":25789},{"block":"triangular_testing","helps":0,"answer":["G"],"clicked":[["answer","clicked"],["M ","false"],["B ","false"],["J ","false"],["N ","false"],["D ","false"],["O ","false"],["K ","false"],["C ","false"],["F ","false"],["I ","false"],["H ","false"],["G ","false"],["L ","false"],["E ","false"],["A ","false"]],"correct":1,"scaffold":"none","question":"starts+finishes","scenario":"axis","graph":"triangular","condition":4,"session":"echo","experiment":"reverse","subject":"AX24A","internal_node_id":"0.0-6.0-9.0","time_elapsed":564192,"trial_index":18,"trial_type":"html","url":"../views/src/external/stimulus.html","rt":52080},{"block":"triangular_testing","helps":0,"answer":["F"],"clicked":[["answer","clicked"],["M ","false"],["B ","false"],["J ","false"],["N ","false"],["D ","false"],["O ","false"],["K ","false"],["C ","false"],["F ","false"],["I ","false"],["H ","false"],["G ","false"],["L ","false"],["E ","false"],["A ","false"]],"correct":0,"scaffold":"none","question":"finishes","scenario":"axis","graph":"triangular","condition":4,"session":"echo","experiment":"reverse","subject":"AX24A","internal_node_id":"0.0-6.0-6.0","time_elapsed":572380,"trial_index":19,"trial_type":"html","url":"../views/src/external/stimulus.html","rt":6932},{"condition":4,"session":"echo","experiment":"reverse","subject":"AX24A","internal_node_id":"0.0-7.0","time_elapsed":576401,"trial_index":20,"trial_type":"single-stim","block":"scenario-one","key_press":13,"stimulus":"img/longmire.png","rt":3016},{"block":"linear_scaffolded","helps":0,"clicked":[["answer","clicked"],["A ","false"],["M ","false"],["D ","false"],["N ","false"],["B ","false"],["F ","false"],["H ","false"],["G ","false"],["O ","false"],["C ","false"],["J ","false"],["I ","false"],["E ","false"],["L ","false"],["K ","false"]],"answer":["C","D","L"],"correct":1,"scaffold":"show-interactive","question":"start","scenario":"longmire","graph":"linear","condition":4,"session":"echo","experiment":"reverse","subject":"AX24A","internal_node_id":"0.0-8.0-0.0","time_elapsed":595655,"trial_index":21,"trial_type":"html","url":"../views/src/external/stimulus.html","rt":18002},{"block":"linear_scaffolded","helps":0,"clicked":[["answer","clicked"],["A ","false"],["M ","false"],["D ","false"],["N ","false"],["B ","false"],["F ","false"],["H ","false"],["G ","false"],["O ","false"],["C ","false"],["J ","false"],["I ","false"],["E ","false"],["L ","false"],["K ","false"]],"answer":["H","J","K","L","M","N","O"],"correct":1,"scaffold":"show-interactive","question":"end","scenario":"longmire","graph":"linear","condition":4,"session":"echo","experiment":"reverse","subject":"AX24A","internal_node_id":"0.0-8.0-1.0","time_elapsed":622712,"trial_index":22,"trial_type":"html","url":"../views/src/external/stimulus.html","rt":25812},{"block":"linear_scaffolded","helps":0,"clicked":[["answer","clicked"],["A ","false"],["M ","false"],["D ","false"],["N ","false"],["B ","false"],["F ","false"],["H ","false"],["G ","false"],["O ","false"],["C ","false"],["J ","false"],["I ","false"],["E ","false"],["L ","false"],["K ","false"]],"answer":["G","O"],"correct":1,"scaffold":"show-interactive","question":"duration","scenario":"longmire","graph":"linear","condition":4,"session":"echo","experiment":"reverse","subject":"AX24A","internal_node_id":"0.0-8.0-2.0","time_elapsed":645887,"trial_index":23,"trial_type":"html","url":"../views/src/external/stimulus.html","rt":21804},{"block":"linear_scaffolded","helps":0,"clicked":[["answer","clicked"],["A ","false"],["M ","false"],["D ","false"],["N ","false"],["B ","false"],["F ","false"],["H ","false"],["G ","false"],["O ","false"],["C ","false"],["J ","false"],["I ","false"],["E ","false"],["L ","false"],["K ","false"]],"answer":["1"],"correct":1,"scaffold":"show-interactive","question":"midpoint","scenario":"longmire","graph":"linear","condition":4,"session":"echo","experiment":"reverse","subject":"AX24A","internal_node_id":"0.0-8.0-3.0","time_elapsed":663256,"trial_index":24,"trial_type":"html","url":"../views/src/external/stimulus.html","rt":16114},{"block":"linear_scaffolded","helps":0,"clicked":[["answer","clicked"],["A ","false"],["M ","false"],["D ","false"],["N ","false"],["B ","false"],["F ","false"],["H ","false"],["G ","false"],["O ","false"],["C ","false"],["J ","false"],["I ","false"],["E ","false"],["L ","false"],["K ","false"]],"answer":["A"],"correct":1,"scaffold":"show-interactive","question":"start+overlap","scenario":"longmire","graph":"linear","condition":4,"session":"echo","experiment":"reverse","subject":"AX24A","internal_node_id":"0.0-8.0-4.0","time_elapsed":684673,"trial_index":25,"trial_type":"html","url":"../views/src/external/stimulus.html","rt":20170},{"block":"linear_testing","helps":0,"clicked":[["answer","clicked"],["A ","false"],["M ","false"],["D ","false"],["N ","false"],["B ","false"],["F ","false"],["H ","false"],["G ","false"],["O ","false"],["C ","false"],["J ","false"],["I ","false"],["E ","false"],["L ","false"],["K ","false"]],"answer":["6","8"],"correct":1,"scaffold":"none","question":"starts","scenario":"longmire","graph":"linear","condition":4,"session":"echo","experiment":"reverse","subject":"AX24A","internal_node_id":"0.0-9.0-5.0","time_elapsed":720478,"trial_index":26,"trial_type":"html","url":"../views/src/external/stimulus.html","rt":34542},{"block":"linear_testing","helps":0,"clicked":[["answer","clicked"],["A ","false"],["M ","false"],["D ","false"],["N ","false"],["B ","false"],["F ","false"],["H ","false"],["G ","false"],["O ","false"],["C ","false"],["J ","false"],["I ","false"],["E ","false"],["L ","false"],["K ","false"]],"answer":["A","N"],"correct":0,"scaffold":"none","question":"overlap+overlap","scenario":"longmire","graph":"linear","condition":4,"session":"echo","experiment":"reverse","subject":"AX24A","internal_node_id":"0.0-9.0-2.0","time_elapsed":756715,"trial_index":27,"trial_type":"html","url":"../views/src/external/stimulus.html","rt":34973},{"block":"linear_testing","helps":0,"clicked":[["answer","clicked"],["A ","false"],["M ","false"],["D ","false"],["N ","false"],["B ","false"],["F ","false"],["H ","false"],["G ","false"],["O ","false"],["C ","false"],["J ","false"],["I ","false"],["E ","false"],["L ","false"],["K ","false"]],"answer":["A","B","D","F"],"correct":1,"scaffold":"none","question":"start+duration","scenario":"longmire","graph":"linear","condition":4,"session":"echo","experiment":"reverse","subject":"AX24A","internal_node_id":"0.0-9.0-0.0","time_elapsed":792531,"trial_index":28,"trial_type":"html","url":"../views/src/external/stimulus.html","rt":34563},{"block":"linear_testing","helps":0,"clicked":[["answer","clicked"],["A ","false"],["M ","false"],["D ","false"],["N ","false"],["B ","false"],["F ","false"],["H ","false"],["G ","false"],["O ","false"],["C ","false"],["J ","false"],["I ","false"],["E ","false"],["L ","false"],["K ","false"]],"answer":["B"],"correct":0,"scaffold":"none","question":"meets","scenario":"longmire","graph":"linear","condition":4,"session":"echo","experiment":"reverse","subject":"AX24A","internal_node_id":"0.0-9.0-8.0","time_elapsed":808759,"trial_index":29,"trial_type":"html","url":"../views/src/external/stimulus.html","rt":14977},{"block":"linear_testing","helps":0,"clicked":[["answer","clicked"],["A ","false"],["M ","false"],["D ","false"],["N ","false"],["B ","false"],["F ","false"],["H ","false"],["G ","false"],["O ","false"],["C ","false"],["J ","false"],["I ","false"],["E ","false"],["L ","false"],["K ","false"]],"answer":["J"],"correct":0,"scaffold":"none","question":"during+overlap","scenario":"longmire","graph":"linear","condition":4,"session":"echo","experiment":"reverse","subject":"AX24A","internal_node_id":"0.0-9.0-3.0","time_elapsed":835950,"trial_index":30,"trial_type":"html","url":"../views/src/external/stimulus.html","rt":25946},{"block":"linear_testing","helps":0,"clicked":[["answer","clicked"],["A ","false"],["M ","false"],["D ","false"],["N ","false"],["B ","false"],["F ","false"],["H ","false"],["G ","false"],["O ","false"],["C ","false"],["J ","false"],["I ","false"],["E ","false"],["L ","false"],["K ","false"]],"answer":["A","B","D","F"],"correct":0,"scaffold":"none","question":"before+overlap","scenario":"longmire","graph":"linear","condition":4,"session":"echo","experiment":"reverse","subject":"AX24A","internal_node_id":"0.0-9.0-1.0","time_elapsed":856466,"trial_index":31,"trial_type":"html","url":"../views/src/external/stimulus.html","rt":19262},{"block":"linear_testing","helps":0,"clicked":[["answer","clicked"],["A ","false"],["M ","false"],["D ","false"],["N ","false"],["B ","false"],["F ","false"],["H ","false"],["G ","false"],["O ","false"],["C ","false"],["J ","false"],["I ","false"],["E ","false"],["L ","false"],["K ","false"]],"answer":["C"],"correct":1,"scaffold":"none","question":"starts+finishes","scenario":"longmire","graph":"linear","condition":4,"session":"echo","experiment":"reverse","subject":"AX24A","internal_node_id":"0.0-9.0-9.0","time_elapsed":870289,"trial_index":32,"trial_type":"html","url":"../views/src/external/stimulus.html","rt":12562},{"block":"linear_testing","helps":0,"clicked":[["answer","clicked"],["A ","false"],["M ","false"],["D ","false"],["N ","false"],["B ","false"],["F ","false"],["H ","false"],["G ","false"],["O ","false"],["C ","false"],["J ","false"],["I ","false"],["E ","false"],["L ","false"],["K ","false"]],"answer":["G","O"],"correct":1,"scaffold":"none","question":"contain+duration","scenario":"longmire","graph":"linear","condition":4,"session":"echo","experiment":"reverse","subject":"AX24A","internal_node_id":"0.0-9.0-4.0","time_elapsed":889946,"trial_index":33,"trial_type":"html","url":"../views/src/external/stimulus.html","rt":18402},{"block":"linear_testing","helps":0,"clicked":[["answer","clicked"],["A ","false"],["M ","false"],["D ","false"],["N ","false"],["B ","false"],["F ","false"],["H ","false"],["G ","false"],["O ","false"],["C ","false"],["J ","false"],["I ","false"],["E ","false"],["L ","false"],["K ","false"]],"answer":["C","F","G","H","I","J","O"],"correct":0,"scaffold":"none","question":"during","scenario":"longmire","graph":"linear","condition":4,"session":"echo","experiment":"reverse","subject":"AX24A","internal_node_id":"0.0-9.0-7.0","time_elapsed":945132,"trial_index":34,"trial_type":"html","url":"../views/src/external/stimulus.html","rt":53938},{"block":"linear_testing","helps":0,"clicked":[["answer","clicked"],["A ","false"],["M ","false"],["D ","false"],["N ","false"],["B ","false"],["F ","false"],["H ","false"],["G ","false"],["O ","false"],["C ","false"],["J ","false"],["I ","false"],["E ","false"],["L ","false"],["K ","false"]],"answer":["4","5"],"correct":1,"scaffold":"none","question":"finishes","scenario":"longmire","graph":"linear","condition":4,"session":"echo","experiment":"reverse","subject":"AX24A","internal_node_id":"0.0-9.0-6.0","time_elapsed":967900,"trial_index":35,"trial_type":"html","url":"../views/src/external/stimulus.html","rt":21520},{"condition":4,"session":"echo","experiment":"reverse","subject":"AX24A","internal_node_id":"0.0-10.0","time_elapsed":971424,"trial_index":36,"trial_type":"single-stim","block":"scenario-draw","key_press":13,"stimulus":"img/jones.png","rt":2519},{"condition":4,"session":"echo","experiment":"reverse","subject":"AX24A","internal_node_id":"0.0-11.0","time_elapsed":1436888,"trial_index":37,"trial_type":"html","block":"instructions_drawing","url":"../views/src/external/instructions_draw.html","rt":464301},{"block":"drawingTest","clicked":[["answer","clicked"]],"answer":["C1"],"correct":1,"scaffold":"none","question":"duration","scenario":"jones","graph":"none","condition":4,"session":"echo","experiment":"reverse","subject":"AX24A","internal_node_id":"0.0-12.0","time_elapsed":1495093,"trial_index":38,"trial_type":"html","url":"../views/src/external/stimulus.html","rt":56771},{"block":"drawingTest","clicked":[["answer","clicked"]],"answer":["Chris","3-4pm"],"correct":1,"scaffold":"none","question":"overlap","scenario":"jones","graph":"none","condition":4,"session":"echo","experiment":"reverse","subject":"AX24A","internal_node_id":"0.0-13.0","time_elapsed":1541300,"trial_index":39,"trial_type":"html","url":"../views/src/external/stimulus.html","rt":44950},{"condition":4,"session":"echo","experiment":"reverse","subject":"AX24A","internal_node_id":"0.0-14.0","time_elapsed":1548185,"trial_index":40,"trial_type":"survey-text","block":"demo-1","responses":"{\"Q0\":\"21\",\"Q1\":\"USA\"}","rt":5879},{"condition":4,"session":"echo","experiment":"reverse","subject":"AX24A","internal_node_id":"0.0-15.0","time_elapsed":1561021,"trial_index":41,"trial_type":"survey-multi-choice","block":"demo-2","responses":"{\"Q0\":\"English\",\"Q1\":\"Fourth\",\"Q2\":\"Biomedical \u0026 Health Sciences\",\"Q3\":\"Female\",\"Q4\":\"the first one (linear\"}","rt":11814},{"condition":4,"session":"echo","experiment":"reverse","subject":"AX24A","internal_node_id":"0.0-16.0","time_elapsed":1564066,"trial_index":42,"trial_type":"html","block":"debrief","url":"../views/src/external/debrief.html","rt":1733}],"__v":0}
{"_id":{"$oid":"58c1aeeec1319b00043751c1"},"data":[{"condition":4,"session":"echo","experiment":"reverse","subject":"9YM1Z","internal_node_id":"0.0-0.0","time_elapsed":22477,"trial_index":0,"trial_type":"single-stim","block":"phone","key_press":13,"stimulus":"img/phone.png","rt":22470},{"condition":4,"session":"echo","experiment":"reverse","subject":"9YM1Z","internal_node_id":"0.0-1.0","time_elapsed":27502,"trial_index":1,"trial_type":"html","block":"consent","url":"../views/src/external/consent.html","rt":3941},{"condition":4,"session":"echo","experiment":"reverse","subject":"9YM1Z","internal_node_id":"0.0-2.0","time_elapsed":33934,"trial_index":2,"trial_type":"survey-text","block":"codes","responses":"{\"Q0\":\"echo\",\"Q1\":\"4\"}","rt":5428},{"condition":4,"session":"echo","experiment":"reverse","subject":"9YM1Z","internal_node_id":"0.0-3.0","time_elapsed":37589,"trial_index":3,"trial_type":"html","block":"instructions_lab","url":"../views/src/external/instructions_lab.html","rt":2537},{"condition":4,"session":"echo","experiment":"reverse","subject":"9YM1Z","internal_node_id":"0.0-4.0","time_elapsed":41154,"trial_index":4,"trial_type":"single-stim","block":"scenario-two","key_press":13,"stimulus":"img/axis.png","rt":2562},{"block":"triangular_scaffolded","helps":0,"clicked":[["answer","clicked"],["M ","false"],["B ","false"],["J ","false"],["N ","false"],["D ","false"],["O ","false"],["K ","false"],["C ","false"],["F ","false"],["I ","false"],["H ","false"],["G ","false"],["L ","false"],["E ","false"],["A ","false"]],"answer":["G"],"correct":0,"scaffold":"show-interactive","question":"start","scenario":"axis","graph":"triangular","condition":4,"session":"echo","experiment":"reverse","subject":"9YM1Z","internal_node_id":"0.0-5.0-0.0","time_elapsed":57273,"trial_index":5,"trial_type":"html","url":"../views/src/external/stimulus.html","rt":14688},{"block":"triangular_scaffolded","helps":0,"clicked":[["answer","clicked"],["M ","false"],["B ","false"],["J ","false"],["N ","false"],["D ","false"],["O ","false"],["K ","false"],["C ","false"],["F ","false"],["I ","false"],["H ","false"],["G ","false"],["L ","false"],["E ","false"],["A ","false"]],"answer":["6"],"correct":0,"scaffold":"show-interactive","question":"end","scenario":"axis","graph":"triangular","condition":4,"session":"echo","experiment":"reverse","subject":"9YM1Z","internal_node_id":"0.0-5.0-1.0","time_elapsed":80848,"trial_index":6,"trial_type":"html","url":"../views/src/external/stimulus.html","rt":22313},{"block":"triangular_scaffolded","helps":0,"clicked":[["answer","clicked"],["M ","false"],["B ","false"],["J ","false"],["N ","false"],["D ","false"],["O ","false"],["K ","false"],["C ","false"],["F ","false"],["I ","false"],["H ","false"],["G ","false"],["L ","false"],["E ","false"],["A ","false"]],"answer":["A"],"correct":0,"scaffold":"show-interactive","question":"duration","scenario":"axis","graph":"triangular","condition":4,"session":"echo","experiment":"reverse","subject":"9YM1Z","internal_node_id":"0.0-5.0-2.0","time_elapsed":120665,"trial_index":7,"trial_type":"html","url":"../views/src/external/stimulus.html","rt":38562},{"block":"triangular_scaffolded","helps":0,"clicked":[["answer","clicked"],["M ","false"],["B ","false"],["J ","false"],["N ","false"],["D ","false"],["O ","false"],["K ","false"],["C ","false"],["F ","false"],["I ","false"],["H ","false"],["G ","false"],["L ","false"],["E ","false"],["A ","false"]],"answer":["10"],"correct":0,"scaffold":"show-interactive","question":"midpoint","scenario":"axis","graph":"triangular","condition":4,"session":"echo","experiment":"reverse","subject":"9YM1Z","internal_node_id":"0.0-5.0-3.0","time_elapsed":145409,"trial_index":8,"trial_type":"html","url":"../views/src/external/stimulus.html","rt":23494},{"block":"triangular_scaffolded","helps":0,"clicked":[["answer","clicked"],["M ","false"],["B ","false"],["J ","false"],["N ","false"],["D ","false"],["O ","false"],["K ","false"],["C ","false"],["F ","false"],["I ","false"],["H ","false"],["G ","false"],["L ","false"],["E ","false"],["A ","false"]],"answer":["4"],"correct":0,"scaffold":"show-interactive","question":"start+overlap","scenario":"axis","graph":"triangular","condition":4,"session":"echo","experiment":"reverse","subject":"9YM1Z","internal_node_id":"0.0-5.0-4.0","time_elapsed":160624,"trial_index":9,"trial_type":"html","url":"../views/src/external/stimulus.html","rt":13930},{"block":"triangular_testing","helps":0,"answer":["9"],"clicked":[["answer","clicked"],["M ","false"],["B ","false"],["J ","false"],["N ","false"],["D ","false"],["O ","false"],["K ","false"],["C ","false"],["F ","false"],["I ","false"],["H ","false"],["G ","false"],["L ","false"],["E ","false"],["A ","false"]],"correct":1,"scaffold":"none","question":"start+duration","scenario":"axis","graph":"triangular","condition":4,"session":"echo","experiment":"reverse","subject":"9YM1Z","internal_node_id":"0.0-6.0-0.0","time_elapsed":168537,"trial_index":10,"trial_type":"html","url":"../views/src/external/stimulus.html","rt":6662},{"block":"triangular_testing","helps":0,"answer":["M"],"clicked":[["answer","clicked"],["M ","false"],["B ","false"],["J ","false"],["N ","false"],["D ","false"],["O ","false"],["K ","false"],["C ","false"],["F ","false"],["I ","false"],["H ","false"],["G ","false"],["L ","false"],["E ","false"],["A ","false"]],"correct":0,"scaffold":"none","question":"starts+finishes","scenario":"axis","graph":"triangular","condition":4,"session":"echo","experiment":"reverse","subject":"9YM1Z","internal_node_id":"0.0-6.0-9.0","time_elapsed":172497,"trial_index":11,"trial_type":"html","url":"../views/src/external/stimulus.html","rt":2704},{"block":"triangular_testing","helps":0,"answer":["A"],"clicked":[["answer","clicked"],["M ","false"],["B ","false"],["J ","false"],["N ","false"],["D ","false"],["O ","false"],["K ","false"],["C ","false"],["F ","false"],["I ","false"],["H ","false"],["G ","false"],["L ","false"],["E ","false"],["A ","false"]],"correct":0,"scaffold":"none","question":"meets","scenario":"axis","graph":"triangular","condition":4,"session":"echo","experiment":"reverse","subject":"9YM1Z","internal_node_id":"0.0-6.0-8.0","time_elapsed":197307,"trial_index":12,"trial_type":"html","url":"../views/src/external/stimulus.html","rt":23564},{"block":"triangular_testing","helps":0,"answer":["H"],"clicked":[["answer","clicked"],["M ","false"],["B ","false"],["J ","false"],["N ","false"],["D ","false"],["O ","false"],["K ","false"],["C ","false"],["F ","false"],["I ","false"],["H ","false"],["G ","false"],["L ","false"],["E ","false"],["A ","false"]],"correct":0,"scaffold":"none","question":"contain+duration","scenario":"axis","graph":"triangular","condition":4,"session":"echo","experiment":"reverse","subject":"9YM1Z","internal_node_id":"0.0-6.0-4.0","time_elapsed":210007,"trial_index":13,"trial_type":"html","url":"../views/src/external/stimulus.html","rt":11451},{"block":"triangular_testing","helps":0,"answer":["G","O"],"clicked":[["answer","clicked"],["M ","false"],["B ","false"],["J ","false"],["N ","false"],["D ","false"],["O ","false"],["K ","false"],["C ","false"],["F ","false"],["I ","false"],["H ","false"],["G ","false"],["L ","false"],["E ","false"],["A ","false"]],"correct":1,"scaffold":"none","question":"finishes","scenario":"axis","graph":"triangular","condition":4,"session":"echo","experiment":"reverse","subject":"9YM1Z","internal_node_id":"0.0-6.0-6.0","time_elapsed":222779,"trial_index":14,"trial_type":"html","url":"../views/src/external/stimulus.html","rt":11522},{"block":"triangular_testing","helps":0,"answer":["6"],"clicked":[["answer","clicked"],["M ","false"],["B ","false"],["J ","false"],["N ","false"],["D ","false"],["O ","false"],["K ","false"],["C ","false"],["F ","false"],["I ","false"],["H ","false"],["G ","false"],["L ","false"],["E ","false"],["A ","false"]],"correct":1,"scaffold":"none","question":"starts","scenario":"axis","graph":"triangular","condition":4,"session":"echo","experiment":"reverse","subject":"9YM1Z","internal_node_id":"0.0-6.0-5.0","time_elapsed":243336,"trial_index":15,"trial_type":"html","url":"../views/src/external/stimulus.html","rt":19301},{"block":"triangular_testing","helps":0,"answer":["H","L","M","O"],"clicked":[["answer","clicked"],["M ","false"],["B ","false"],["J ","false"],["N ","false"],["D ","false"],["O ","false"],["K ","false"],["C ","false"],["F ","false"],["I ","false"],["H ","false"],["G ","false"],["L ","false"],["E ","false"],["A ","false"]],"correct":0,"scaffold":"none","question":"before+overlap","scenario":"axis","graph":"triangular","condition":4,"session":"echo","experiment":"reverse","subject":"9YM1Z","internal_node_id":"0.0-6.0-1.0","time_elapsed":268832,"trial_index":16,"trial_type":"html","url":"../views/src/external/stimulus.html","rt":24245},{"block":"triangular_testing","helps":0,"answer":["F","M"],"clicked":[["answer","clicked"],["M ","false"],["B ","false"],["J ","false"],["N ","false"],["D ","false"],["O ","false"],["K ","false"],["C ","false"],["F ","false"],["I ","false"],["H ","false"],["G ","false"],["L ","false"],["E ","false"],["A ","false"]],"correct":0,"scaffold":"none","question":"during","scenario":"axis","graph":"triangular","condition":4,"session":"echo","experiment":"reverse","subject":"9YM1Z","internal_node_id":"0.0-6.0-7.0","time_elapsed":299656,"trial_index":17,"trial_type":"html","url":"../views/src/external/stimulus.html","rt":29577},{"block":"triangular_testing","helps":0,"answer":["M"],"clicked":[["answer","clicked"],["M ","false"],["B ","false"],["J ","false"],["N ","false"],["D ","false"],["O ","false"],["K ","false"],["C ","false"],["F ","false"],["I ","false"],["H ","false"],["G ","false"],["L ","false"],["E ","false"],["A ","false"]],"correct":0,"scaffold":"none","question":"during+overlap","scenario":"axis","graph":"triangular","condition":4,"session":"echo","experiment":"reverse","subject":"9YM1Z","internal_node_id":"0.0-6.0-3.0","time_elapsed":321098,"trial_index":18,"trial_type":"html","url":"../views/src/external/stimulus.html","rt":20177},{"block":"triangular_testing","helps":0,"answer":["B"],"clicked":[["answer","clicked"],["M ","false"],["B ","false"],["J ","false"],["N ","false"],["D ","false"],["O ","false"],["K ","false"],["C ","false"],["F ","false"],["I ","false"],["H ","false"],["G ","false"],["L ","false"],["E ","false"],["A ","false"]],"correct":0,"scaffold":"none","question":"overlap+overlap","scenario":"axis","graph":"triangular","condition":4,"session":"echo","experiment":"reverse","subject":"9YM1Z","internal_node_id":"0.0-6.0-2.0","time_elapsed":334892,"trial_index":19,"trial_type":"html","url":"../views/src/external/stimulus.html","rt":12530},{"condition":4,"session":"echo","experiment":"reverse","subject":"9YM1Z","internal_node_id":"0.0-7.0","time_elapsed":344144,"trial_index":20,"trial_type":"single-stim","block":"scenario-one","key_press":13,"stimulus":"img/longmire.png","rt":8247},{"block":"linear_scaffolded","helps":0,"clicked":[["answer","clicked"],["A ","false"],["M ","false"],["D ","false"],["N ","false"],["B ","false"],["F ","false"],["H ","false"],["G ","false"],["O ","false"],["C ","false"],["J ","false"],["I ","false"],["E ","false"],["L ","false"],["K ","false"]],"answer":["D"],"correct":0,"scaffold":"show-interactive","question":"start","scenario":"longmire","graph":"linear","condition":4,"session":"echo","experiment":"reverse","subject":"9YM1Z","internal_node_id":"0.0-8.0-0.0","time_elapsed":354144,"trial_index":21,"trial_type":"html","url":"../views/src/external/stimulus.html","rt":8743},{"block":"linear_scaffolded","helps":0,"clicked":[["answer","clicked"],["A ","false"],["M ","false"],["D ","false"],["N ","false"],["B ","false"],["F ","false"],["H ","false"],["G ","false"],["O ","false"],["C ","false"],["J ","false"],["I ","false"],["E ","false"],["L ","false"],["K ","false"]],"answer":["H","J","K","L","M","N","O"],"correct":1,"scaffold":"show-interactive","question":"end","scenario":"longmire","graph":"linear","condition":4,"session":"echo","experiment":"reverse","subject":"9YM1Z","internal_node_id":"0.0-8.0-1.0","time_elapsed":393342,"trial_index":22,"trial_type":"html","url":"../views/src/external/stimulus.html","rt":37948},{"block":"linear_scaffolded","helps":0,"clicked":[["answer","clicked"],["A ","false"],["M ","false"],["D ","false"],["N ","false"],["B ","false"],["F ","false"],["H ","false"],["G ","false"],["O ","false"],["C ","false"],["J ","false"],["I ","false"],["E ","false"],["L ","false"],["K ","false"]],"answer":["G","O"],"correct":1,"scaffold":"show-interactive","question":"duration","scenario":"longmire","graph":"linear","condition":4,"session":"echo","experiment":"reverse","subject":"9YM1Z","internal_node_id":"0.0-8.0-2.0","time_elapsed":416933,"trial_index":23,"trial_type":"html","url":"../views/src/external/stimulus.html","rt":22199},{"block":"linear_scaffolded","helps":0,"clicked":[["answer","clicked"],["A ","false"],["M ","false"],["D ","false"],["N ","false"],["B ","false"],["F ","false"],["H ","false"],["G ","false"],["O ","false"],["C ","false"],["J ","false"],["I ","false"],["E ","false"],["L ","false"],["K ","false"]],"answer":["1"],"correct":1,"scaffold":"show-interactive","question":"midpoint","scenario":"longmire","graph":"linear","condition":4,"session":"echo","experiment":"reverse","subject":"9YM1Z","internal_node_id":"0.0-8.0-3.0","time_elapsed":431912,"trial_index":24,"trial_type":"html","url":"../views/src/external/stimulus.html","rt":13716},{"block":"linear_scaffolded","helps":0,"clicked":[["answer","clicked"],["A ","false"],["M ","false"],["D ","false"],["N ","false"],["B ","false"],["F ","false"],["H ","false"],["G ","false"],["O ","false"],["C ","false"],["J ","false"],["I ","false"],["E ","false"],["L ","false"],["K ","false"]],"answer":["A"],"correct":1,"scaffold":"show-interactive","question":"start+overlap","scenario":"longmire","graph":"linear","condition":4,"session":"echo","experiment":"reverse","subject":"9YM1Z","internal_node_id":"0.0-8.0-4.0","time_elapsed":443983,"trial_index":25,"trial_type":"html","url":"../views/src/external/stimulus.html","rt":10816},{"block":"linear_testing","helps":0,"clicked":[["answer","clicked"],["A ","false"],["M ","false"],["D ","false"],["N ","false"],["B ","false"],["F ","false"],["H ","false"],["G ","false"],["O ","false"],["C ","false"],["J ","false"],["I ","false"],["E ","false"],["L ","false"],["K ","false"]],"answer":["A","M","N"],"correct":1,"scaffold":"none","question":"overlap+overlap","scenario":"longmire","graph":"linear","condition":4,"session":"echo","experiment":"reverse","subject":"9YM1Z","internal_node_id":"0.0-9.0-2.0","time_elapsed":470793,"trial_index":26,"trial_type":"html","url":"../views/src/external/stimulus.html","rt":25554},{"block":"linear_testing","helps":0,"clicked":[["answer","clicked"],["A ","false"],["M ","false"],["D ","false"],["N ","false"],["B ","false"],["F ","false"],["H ","false"],["G ","false"],["O ","false"],["C ","false"],["J ","false"],["I ","false"],["E ","false"],["L ","false"],["K ","false"]],"answer":["B","C","D","F","G","H","I","J","K","L","O"],"correct":0,"scaffold":"none","question":"during","scenario":"longmire","graph":"linear","condition":4,"session":"echo","experiment":"reverse","subject":"9YM1Z","internal_node_id":"0.0-9.0-7.0","time_elapsed":555416,"trial_index":27,"trial_type":"html","url":"../views/src/external/stimulus.html","rt":83361},{"block":"linear_testing","helps":0,"clicked":[["answer","clicked"],["A ","false"],["M ","false"],["D ","false"],["N ","false"],["B ","false"],["F ","false"],["H ","false"],["G ","false"],["O ","false"],["C ","false"],["J ","false"],["I ","false"],["E ","false"],["L ","false"],["K ","false"]],"answer":["C","H","M"],"correct":0,"scaffold":"none","question":"meets","scenario":"longmire","graph":"linear","condition":4,"session":"echo","experiment":"reverse","subject":"9YM1Z","internal_node_id":"0.0-9.0-8.0","time_elapsed":561966,"trial_index":28,"trial_type":"html","url":"../views/src/external/stimulus.html","rt":5173},{"block":"linear_testing","helps":0,"clicked":[["answer","clicked"],["A ","false"],["M ","false"],["D ","false"],["N ","false"],["B ","false"],["F ","false"],["H ","false"],["G ","false"],["O ","false"],["C ","false"],["J ","false"],["I ","false"],["E ","false"],["L ","false"],["K ","false"]],"answer":["8","4"],"correct":0,"scaffold":"none","question":"finishes","scenario":"longmire","graph":"linear","condition":4,"session":"echo","experiment":"reverse","subject":"9YM1Z","internal_node_id":"0.0-9.0-6.0","time_elapsed":567039,"trial_index":29,"trial_type":"html","url":"../views/src/external/stimulus.html","rt":3809},{"block":"linear_testing","helps":0,"clicked":[["answer","clicked"],["A ","false"],["M ","false"],["D ","false"],["N ","false"],["B ","false"],["F ","false"],["H ","false"],["G ","false"],["O ","false"],["C ","false"],["J ","false"],["I ","false"],["E ","false"],["L ","false"],["K ","false"]],"answer":["8","4"],"correct":0,"scaffold":"none","question":"starts","scenario":"longmire","graph":"linear","condition":4,"session":"echo","experiment":"reverse","subject":"9YM1Z","internal_node_id":"0.0-9.0-5.0","time_elapsed":571943,"trial_index":30,"trial_type":"html","url":"../views/src/external/stimulus.html","rt":3644},{"block":"linear_testing","helps":0,"clicked":[["answer","clicked"],["A ","false"],["M ","false"],["D ","false"],["N ","false"],["B ","false"],["F ","false"],["H ","false"],["G ","false"],["O ","false"],["C ","false"],["J ","false"],["I ","false"],["E ","false"],["L ","false"],["K ","false"]],"answer":["C","E","I","K","L"],"correct":0,"scaffold":"none","question":"start+duration","scenario":"longmire","graph":"linear","condition":4,"session":"echo","experiment":"reverse","subject":"9YM1Z","internal_node_id":"0.0-9.0-0.0","time_elapsed":633548,"trial_index":31,"trial_type":"html","url":"../views/src/external/stimulus.html","rt":60325},{"block":"linear_testing","helps":0,"clicked":[["answer","clicked"],["A ","false"],["M ","false"],["D ","false"],["N ","false"],["B ","false"],["F ","false"],["H ","false"],["G ","false"],["O ","false"],["C ","false"],["J ","false"],["I ","false"],["E ","false"],["L ","false"],["K ","false"]],"answer":["A","B","C","D","F","I"],"correct":1,"scaffold":"none","question":"before+overlap","scenario":"longmire","graph":"linear","condition":4,"session":"echo","experiment":"reverse","subject":"9YM1Z","internal_node_id":"0.0-9.0-1.0","time_elapsed":675883,"trial_index":32,"trial_type":"html","url":"../views/src/external/stimulus.html","rt":40989},{"block":"linear_testing","helps":0,"clicked":[["answer","clicked"],["A ","false"],["M ","false"],["D ","false"],["N ","false"],["B ","false"],["F ","false"],["H ","false"],["G ","false"],["O ","false"],["C ","false"],["J ","false"],["I ","false"],["E ","false"],["L ","false"],["K ","false"]],"answer":["D","N"],"correct":0,"scaffold":"none","question":"contain+duration","scenario":"longmire","graph":"linear","condition":4,"session":"echo","experiment":"reverse","subject":"9YM1Z","internal_node_id":"0.0-9.0-4.0","time_elapsed":737797,"trial_index":33,"trial_type":"html","url":"../views/src/external/stimulus.html","rt":60662},{"block":"linear_testing","helps":0,"clicked":[["answer","clicked"],["A ","false"],["M ","false"],["D ","false"],["N ","false"],["B ","false"],["F ","false"],["H ","false"],["G ","false"],["O ","false"],["C ","false"],["J ","false"],["I ","false"],["E ","false"],["L ","false"],["K ","false"]],"answer":["C"],"correct":1,"scaffold":"none","question":"starts+finishes","scenario":"longmire","graph":"linear","condition":4,"session":"echo","experiment":"reverse","subject":"9YM1Z","internal_node_id":"0.0-9.0-9.0","time_elapsed":752215,"trial_index":34,"trial_type":"html","url":"../views/src/external/stimulus.html","rt":13079},{"block":"linear_testing","helps":0,"clicked":[["answer","clicked"],["A ","false"],["M ","false"],["D ","false"],["N ","false"],["B ","false"],["F ","false"],["H ","false"],["G ","false"],["O ","false"],["C ","false"],["J ","false"],["I ","false"],["E ","false"],["L ","false"],["K ","false"]],"answer":["L"],"correct":0,"scaffold":"none","question":"during+overlap","scenario":"longmire","graph":"linear","condition":4,"session":"echo","experiment":"reverse","subject":"9YM1Z","internal_node_id":"0.0-9.0-3.0","time_elapsed":794969,"trial_index":35,"trial_type":"html","url":"../views/src/external/stimulus.html","rt":41503},{"condition":4,"session":"echo","experiment":"reverse","subject":"9YM1Z","internal_node_id":"0.0-10.0","time_elapsed":799044,"trial_index":36,"trial_type":"single-stim","block":"scenario-draw","key_press":13,"stimulus":"img/jones.png","rt":3069},{"condition":4,"session":"echo","experiment":"reverse","subject":"9YM1Z","internal_node_id":"0.0-11.0","time_elapsed":876012,"trial_index":37,"trial_type":"html","block":"instructions_drawing","url":"../views/src/external/instructions_draw.html","rt":75820},{"block":"drawingTest","clicked":[["answer","clicked"]],"answer":["B1"],"correct":0,"scaffold":"none","question":"duration","scenario":"jones","graph":"none","condition":4,"session":"echo","experiment":"reverse","subject":"9YM1Z","internal_node_id":"0.0-12.0","time_elapsed":1698447,"trial_index":38,"trial_type":"html","url":"../views/src/external/stimulus.html","rt":821099},{"block":"drawingTest","clicked":[["answer","clicked"]],"answer":["Bahar","3-4pm"],"correct":0,"scaffold":"none","question":"overlap","scenario":"jones","graph":"none","condition":4,"session":"echo","experiment":"reverse","subject":"9YM1Z","internal_node_id":"0.0-13.0","time_elapsed":1714472,"trial_index":39,"trial_type":"html","url":"../views/src/external/stimulus.html","rt":14592},{"condition":4,"session":"echo","experiment":"reverse","subject":"9YM1Z","internal_node_id":"0.0-14.0","time_elapsed":1724407,"trial_index":40,"trial_type":"survey-text","block":"demo-1","responses":"{\"Q0\":\"21\",\"Q1\":\"us\"}","rt":8927},{"condition":4,"session":"echo","experiment":"reverse","subject":"9YM1Z","internal_node_id":"0.0-15.0","time_elapsed":1738067,"trial_index":41,"trial_type":"survey-multi-choice","block":"demo-2","responses":"{\"Q0\":\"English\",\"Q1\":\"Fourth\",\"Q2\":\"Biomedical \u0026 Health Sciences\",\"Q3\":\"Female\",\"Q4\":\"the first one (linear\"}","rt":12633},{"condition":4,"session":"echo","experiment":"reverse","subject":"9YM1Z","internal_node_id":"0.0-16.0","time_elapsed":1740197,"trial_index":42,"trial_type":"html","block":"debrief","url":"../views/src/external/debrief.html","rt":952}],"__v":0}
{"_id":{"$oid":"58c1af4dc1319b00043751c2"},"data":[{"condition":2,"session":"echo","experiment":"experiment","subject":"DJ7X4","internal_node_id":"0.0-0.0","time_elapsed":46782,"trial_index":0,"trial_type":"single-stim","block":"phone","key_press":13,"stimulus":"img/phone.png","rt":46778},{"condition":2,"session":"echo","experiment":"experiment","subject":"DJ7X4","internal_node_id":"0.0-1.0","time_elapsed":54403,"trial_index":1,"trial_type":"html","block":"consent","url":"../views/src/external/consent.html","rt":6489},{"condition":2,"session":"echo","experiment":"experiment","subject":"DJ7X4","internal_node_id":"0.0-2.0","time_elapsed":73439,"trial_index":2,"trial_type":"survey-text","block":"codes","responses":"{\"Q0\":\"ECHO\",\"Q1\":\"2\"}","rt":18027},{"condition":2,"session":"echo","experiment":"experiment","subject":"DJ7X4","internal_node_id":"0.0-3.0","time_elapsed":94468,"trial_index":3,"trial_type":"html","block":"instructions_lab","url":"../views/src/external/instructions_lab.html","rt":19894},{"condition":2,"session":"echo","experiment":"experiment","subject":"DJ7X4","internal_node_id":"0.0-4.0","time_elapsed":117177,"trial_index":4,"trial_type":"single-stim","block":"scenario-one","key_press":13,"stimulus":"img/longmire.png","rt":21703},{"block":"linear_scaffolded","helps":0,"clicked":[["answer","clicked"],["A ","false"],["M ","false"],["D ","false"],["N ","false"],["B ","false"],["F ","false"],["H ","false"],["G ","false"],["O ","false"],["C ","false"],["J ","false"],["I ","false"],["E ","false"],["L ","false"],["K ","false"]],"answer":["A","I","K"],"correct":0,"scaffold":"describe-how","question":"start","scenario":"longmire","graph":"linear","condition":2,"session":"echo","experiment":"experiment","subject":"DJ7X4","internal_node_id":"0.0-5.0-0.0","time_elapsed":157347,"trial_index":5,"trial_type":"html","url":"../views/src/external/stimulus.html","rt":38695},{"block":"linear_scaffolded","helps":0,"clicked":[["answer","clicked"],["A ","false"],["M ","false"],["D ","false"],["N ","false"],["B ","false"],["F ","false"],["H ","false"],["G ","false"],["O ","false"],["C ","false"],["J ","false"],["I ","false"],["E ","false"],["L ","false"],["K ","false"]],"answer":["H","J","K","L","M","N","O"],"correct":1,"scaffold":"describe-how","question":"end","scenario":"longmire","graph":"linear","condition":2,"session":"echo","experiment":"experiment","subject":"DJ7X4","internal_node_id":"0.0-5.0-1.0","time_elapsed":207732,"trial_index":6,"trial_type":"html","url":"../views/src/external/stimulus.html","rt":49114},{"block":"linear_scaffolded","helps":0,"clicked":[["answer","clicked"],["A ","false"],["M ","false"],["D ","false"],["N ","false"],["B ","false"],["F ","false"],["H ","false"],["G ","false"],["O ","false"],["C ","false"],["J ","false"],["I ","false"],["E ","false"],["L ","false"],["K ","false"]],"answer":["G","O"],"correct":1,"scaffold":"describe-how","question":"duration","scenario":"longmire","graph":"linear","condition":2,"session":"echo","experiment":"experiment","subject":"DJ7X4","internal_node_id":"0.0-5.0-2.0","time_elapsed":237100,"trial_index":7,"trial_type":"html","url":"../views/src/external/stimulus.html","rt":28113},{"block":"linear_scaffolded","helps":0,"clicked":[["answer","clicked"],["A ","false"],["M ","false"],["D ","false"],["N ","false"],["B ","false"],["F ","false"],["H ","false"],["G ","false"],["O ","false"],["C ","false"],["J ","false"],["I ","false"],["E ","false"],["L ","false"],["K ","false"]],"answer":["12"],"correct":0,"scaffold":"describe-how","question":"midpoint","scenario":"longmire","graph":"linear","condition":2,"session":"echo","experiment":"experiment","subject":"DJ7X4","internal_node_id":"0.0-5.0-3.0","time_elapsed":265377,"trial_index":8,"trial_type":"html","url":"../views/src/external/stimulus.html","rt":27007},{"block":"linear_scaffolded","helps":0,"clicked":[["answer","clicked"],["A ","false"],["M ","false"],["D ","false"],["N ","false"],["B ","false"],["F ","false"],["H ","false"],["G ","false"],["O ","false"],["C ","false"],["J ","false"],["I ","false"],["E ","false"],["L ","false"],["K ","false"]],"answer":["A"],"correct":1,"scaffold":"describe-how","question":"start+overlap","scenario":"longmire","graph":"linear","condition":2,"session":"echo","experiment":"experiment","subject":"DJ7X4","internal_node_id":"0.0-5.0-4.0","time_elapsed":280656,"trial_index":9,"trial_type":"html","url":"../views/src/external/stimulus.html","rt":14020},{"block":"linear_testing","helps":0,"clicked":[["answer","clicked"],["A ","false"],["M ","false"],["D ","false"],["N ","false"],["B ","false"],["F ","false"],["H ","false"],["G ","false"],["O ","false"],["C ","false"],["J ","false"],["I ","false"],["E ","false"],["L ","false"],["K ","false"]],"answer":["A","B","D","F"],"correct":1,"scaffold":"none","question":"start+duration","scenario":"longmire","graph":"linear","condition":2,"session":"echo","experiment":"experiment","subject":"DJ7X4","internal_node_id":"0.0-6.0-0.0","time_elapsed":343449,"trial_index":10,"trial_type":"html","url":"../views/src/external/stimulus.html","rt":61538},{"block":"linear_testing","helps":0,"clicked":[["answer","clicked"],["A ","false"],["M ","false"],["D ","false"],["N ","false"],["B ","false"],["F ","false"],["H ","false"],["G ","false"],["O ","false"],["C ","false"],["J ","false"],["I ","false"],["E ","false"],["L ","false"],["K ","false"]],"answer":["C","D","F","G","H","J","L","O"],"correct":0,"scaffold":"none","question":"during","scenario":"longmire","graph":"linear","condition":2,"session":"echo","experiment":"experiment","subject":"DJ7X4","internal_node_id":"0.0-6.0-7.0","time_elapsed":419964,"trial_index":11,"trial_type":"html","url":"../views/src/external/stimulus.html","rt":75163},{"block":"linear_testing","helps":0,"clicked":[["answer","clicked"],["A ","false"],["M ","false"],["D ","false"],["N ","false"],["B ","false"],["F ","false"],["H ","false"],["G ","false"],["O ","false"],["C ","false"],["J ","false"],["I ","false"],["E ","false"],["L ","false"],["K ","false"]],"answer":["G","O"],"correct":1,"scaffold":"none","question":"contain+duration","scenario":"longmire","graph":"linear","condition":2,"session":"echo","experiment":"experiment","subject":"DJ7X4","internal_node_id":"0.0-6.0-4.0","time_elapsed":452470,"trial_index":12,"trial_type":"html","url":"../views/src/external/stimulus.html","rt":31139},{"block":"linear_testing","helps":0,"clicked":[["answer","clicked"],["A ","false"],["M ","false"],["D ","false"],["N ","false"],["B ","false"],["F ","false"],["H ","false"],["G ","false"],["O ","false"],["C ","false"],["J ","false"],["I ","false"],["E ","false"],["L ","false"],["K ","false"]],"answer":["C"],"correct":1,"scaffold":"none","question":"starts+finishes","scenario":"longmire","graph":"linear","condition":2,"session":"echo","experiment":"experiment","subject":"DJ7X4","internal_node_id":"0.0-6.0-9.0","time_elapsed":486566,"trial_index":13,"trial_type":"html","url":"../views/src/external/stimulus.html","rt":32816},{"block":"linear_testing","helps":0,"clicked":[["answer","clicked"],["A ","false"],["M ","false"],["D ","false"],["N ","false"],["B ","false"],["F ","false"],["H ","false"],["G ","false"],["O ","false"],["C ","false"],["J ","false"],["I ","false"],["E ","false"],["L ","false"],["K ","false"]],"answer":["A","M","N"],"correct":1,"scaffold":"none","question":"overlap+overlap","scenario":"longmire","graph":"linear","condition":2,"session":"echo","experiment":"experiment","subject":"DJ7X4","internal_node_id":"0.0-6.0-2.0","time_elapsed":538650,"trial_index":14,"trial_type":"html","url":"../views/src/external/stimulus.html","rt":50820},{"block":"linear_testing","helps":0,"clicked":[["answer","clicked"],["A ","false"],["M ","false"],["D ","false"],["N ","false"],["B ","false"],["F ","false"],["H ","false"],["G ","false"],["O ","false"],["C ","false"],["J ","false"],["I ","false"],["E ","false"],["L ","false"],["K ","false"]],"answer":["4"],"correct":0,"scaffold":"none","question":"finishes","scenario":"longmire","graph":"linear","condition":2,"session":"echo","experiment":"experiment","subject":"DJ7X4","internal_node_id":"0.0-6.0-6.0","time_elapsed":577294,"trial_index":15,"trial_type":"html","url":"../views/src/external/stimulus.html","rt":37390},{"block":"linear_testing","helps":0,"clicked":[["answer","clicked"],["A ","false"],["M ","false"],["D ","false"],["N ","false"],["B ","false"],["F ","false"],["H ","false"],["G ","false"],["O ","false"],["C ","false"],["J ","false"],["I ","false"],["E ","false"],["L ","false"],["K ","false"]],"answer":["8"],"correct":0,"scaffold":"none","question":"starts","scenario":"longmire","graph":"linear","condition":2,"session":"echo","experiment":"experiment","subject":"DJ7X4","internal_node_id":"0.0-6.0-5.0","time_elapsed":602376,"trial_index":16,"trial_type":"html","url":"../views/src/external/stimulus.html","rt":23806},{"block":"linear_testing","helps":0,"clicked":[["answer","clicked"],["A ","false"],["M ","false"],["D ","false"],["N ","false"],["B ","false"],["F ","false"],["H ","false"],["G ","false"],["O ","false"],["C ","false"],["J ","false"],["I ","false"],["E ","false"],["L ","false"],["K ","false"]],"answer":["K","L"],"correct":1,"scaffold":"none","question":"during+overlap","scenario":"longmire","graph":"linear","condition":2,"session":"echo","experiment":"experiment","subject":"DJ7X4","internal_node_id":"0.0-6.0-3.0","time_elapsed":627239,"trial_index":17,"trial_type":"html","url":"../views/src/external/stimulus.html","rt":23461},{"block":"linear_testing","helps":0,"clicked":[["answer","clicked"],["A ","false"],["M ","false"],["D ","false"],["N ","false"],["B ","false"],["F ","false"],["H ","false"],["G ","false"],["O ","false"],["C ","false"],["J ","false"],["I ","false"],["E ","false"],["L ","false"],["K ","false"]],"answer":["O"],"correct":1,"scaffold":"none","question":"meets","scenario":"longmire","graph":"linear","condition":2,"session":"echo","experiment":"experiment","subject":"DJ7X4","internal_node_id":"0.0-6.0-8.0","time_elapsed":647497,"trial_index":18,"trial_type":"html","url":"../views/src/external/stimulus.html","rt":19004},{"block":"linear_testing","helps":0,"clicked":[["answer","clicked"],["A ","false"],["M ","false"],["D ","false"],["N ","false"],["B ","false"],["F ","false"],["H ","false"],["G ","false"],["O ","false"],["C ","false"],["J ","false"],["I ","false"],["E ","false"],["L ","false"],["K ","false"]],"answer":["A","B","D","F"],"correct":0,"scaffold":"none","question":"before+overlap","scenario":"longmire","graph":"linear","condition":2,"session":"echo","experiment":"experiment","subject":"DJ7X4","internal_node_id":"0.0-6.0-1.0","time_elapsed":670980,"trial_index":19,"trial_type":"html","url":"../views/src/external/stimulus.html","rt":22225},{"condition":2,"session":"echo","experiment":"experiment","subject":"DJ7X4","internal_node_id":"0.0-7.0","time_elapsed":693763,"trial_index":20,"trial_type":"single-stim","block":"scenario-two","key_press":13,"stimulus":"img/axis.png","rt":21777},{"block":"triangular_scaffolded","helps":0,"clicked":[["answer","clicked"],["M ","false"],["B ","false"],["J ","false"],["N ","false"],["D ","false"],["O ","false"],["K ","false"],["C ","false"],["F ","false"],["I ","false"],["H ","false"],["G ","false"],["L ","false"],["E ","false"],["A ","false"]],"answer":["M"],"correct":0,"scaffold":"describe-how","question":"start","scenario":"axis","graph":"triangular","condition":2,"session":"echo","experiment":"experiment","subject":"DJ7X4","internal_node_id":"0.0-8.0-0.0","time_elapsed":718449,"trial_index":21,"trial_type":"html","url":"../views/src/external/stimulus.html","rt":23427},{"block":"triangular_scaffolded","helps":0,"clicked":[["answer","clicked"],["M ","false"],["B ","false"],["J ","false"],["N ","false"],["D ","false"],["O ","false"],["K ","false"],["C ","false"],["F ","false"],["I ","false"],["H ","false"],["G ","false"],["L ","false"],["E ","false"],["A ","false"]],"answer":["4"],"correct":1,"scaffold":"describe-how","question":"end","scenario":"axis","graph":"triangular","condition":2,"session":"echo","experiment":"experiment","subject":"DJ7X4","internal_node_id":"0.0-8.0-1.0","time_elapsed":793327,"trial_index":22,"trial_type":"html","url":"../views/src/external/stimulus.html","rt":73630},{"block":"triangular_scaffolded","helps":0,"clicked":[["answer","clicked"],["M ","false"],["B ","false"],["J ","false"],["N ","false"],["D ","false"],["O ","false"],["K ","false"],["C ","false"],["F ","false"],["I ","false"],["H ","false"],["G ","false"],["L ","false"],["E ","false"],["A ","false"]],"answer":["A","E","G","L"],"correct":0,"scaffold":"describe-how","question":"duration","scenario":"axis","graph":"triangular","condition":2,"session":"echo","experiment":"experiment","subject":"DJ7X4","internal_node_id":"0.0-8.0-2.0","time_elapsed":835953,"trial_index":23,"trial_type":"html","url":"../views/src/external/stimulus.html","rt":41293},{"block":"triangular_scaffolded","helps":0,"clicked":[["answer","clicked"],["M ","false"],["B ","false"],["J ","false"],["N ","false"],["D ","false"],["O ","false"],["K ","false"],["C ","false"],["F ","false"],["I ","false"],["H ","false"],["G ","false"],["L ","false"],["E ","false"],["A ","false"]],"answer":["9"],"correct":0,"scaffold":"describe-how","question":"midpoint","scenario":"axis","graph":"triangular","condition":2,"session":"echo","experiment":"experiment","subject":"DJ7X4","internal_node_id":"0.0-8.0-3.0","time_elapsed":914631,"trial_index":24,"trial_type":"html","url":"../views/src/external/stimulus.html","rt":77417},{"block":"triangular_scaffolded","helps":0,"clicked":[["answer","clicked"],["M ","false"],["B ","false"],["J ","false"],["N ","false"],["D ","false"],["O ","false"],["K ","false"],["C ","false"],["F ","false"],["I ","false"],["H ","false"],["G ","false"],["L ","false"],["E ","false"],["A ","false"]],"answer":["10"],"correct":0,"scaffold":"describe-how","question":"start+overlap","scenario":"axis","graph":"triangular","condition":2,"session":"echo","experiment":"experiment","subject":"DJ7X4","internal_node_id":"0.0-8.0-4.0","time_elapsed":945157,"trial_index":25,"trial_type":"html","url":"../views/src/external/stimulus.html","rt":29201},{"block":"triangular_testing","helps":0,"answer":["F"],"clicked":[["answer","clicked"],["M ","false"],["B ","false"],["J ","false"],["N ","false"],["D ","false"],["O ","false"],["K ","false"],["C ","false"],["F ","false"],["I ","false"],["H ","false"],["G ","false"],["L ","false"],["E ","false"],["A ","false"]],"correct":0,"scaffold":"none","question":"finishes","scenario":"axis","graph":"triangular","condition":2,"session":"echo","experiment":"experiment","subject":"DJ7X4","internal_node_id":"0.0-9.0-6.0","time_elapsed":989741,"trial_index":26,"trial_type":"html","url":"../views/src/external/stimulus.html","rt":43331},{"block":"triangular_testing","helps":0,"answer":["D","N","O"],"clicked":[["answer","clicked"],["M ","false"],["B ","false"],["J ","false"],["N ","false"],["D ","false"],["O ","false"],["K ","false"],["C ","false"],["F ","false"],["I ","false"],["H ","false"],["G ","false"],["L ","false"],["E ","false"],["A ","false"]],"correct":0,"scaffold":"none","question":"contain+duration","scenario":"axis","graph":"triangular","condition":2,"session":"echo","experiment":"experiment","subject":"DJ7X4","internal_node_id":"0.0-9.0-4.0","time_elapsed":1011572,"trial_index":27,"trial_type":"html","url":"../views/src/external/stimulus.html","rt":20577},{"block":"triangular_testing","helps":0,"answer":["3"],"clicked":[["answer","clicked"],["M ","false"],["B ","false"],["J ","false"],["N ","false"],["D ","false"],["O ","false"],["K ","false"],["C ","false"],["F ","false"],["I ","false"],["H ","false"],["G ","false"],["L ","false"],["E ","false"],["A ","false"]],"correct":0,"scaffold":"none","question":"starts","scenario":"axis","graph":"triangular","condition":2,"session":"echo","experiment":"experiment","subject":"DJ7X4","internal_node_id":"0.0-9.0-5.0","time_elapsed":1037799,"trial_index":28,"trial_type":"html","url":"../views/src/external/stimulus.html","rt":24969},{"block":"triangular_testing","helps":0,"answer":["F","M"],"clicked":[["answer","clicked"],["M ","false"],["B ","false"],["J ","false"],["N ","false"],["D ","false"],["O ","false"],["K ","false"],["C ","false"],["F ","false"],["I ","false"],["H ","false"],["G ","false"],["L ","false"],["E ","false"],["A ","false"]],"correct":0,"scaffold":"none","question":"meets","scenario":"axis","graph":"triangular","condition":2,"session":"echo","experiment":"experiment","subject":"DJ7X4","internal_node_id":"0.0-9.0-8.0","time_elapsed":1094557,"trial_index":29,"trial_type":"html","url":"../views/src/external/stimulus.html","rt":55508},{"block":"triangular_testing","helps":0,"answer":["I"],"clicked":[["answer","clicked"],["M ","false"],["B ","false"],["J ","false"],["N ","false"],["D ","false"],["O ","false"],["K ","false"],["C ","false"],["F ","false"],["I ","false"],["H ","false"],["G ","false"],["L ","false"],["E ","false"],["A ","false"]],"correct":0,"scaffold":"none","question":"starts+finishes","scenario":"axis","graph":"triangular","condition":2,"session":"echo","experiment":"experiment","subject":"DJ7X4","internal_node_id":"0.0-9.0-9.0","time_elapsed":1146304,"trial_index":30,"trial_type":"html","url":"../views/src/external/stimulus.html","rt":50495},{"block":"triangular_testing","helps":0,"answer":["10"],"clicked":[["answer","clicked"],["M ","false"],["B ","false"],["J ","false"],["N ","false"],["D ","false"],["O ","false"],["K ","false"],["C ","false"],["F ","false"],["I ","false"],["H ","false"],["G ","false"],["L ","false"],["E ","false"],["A ","false"]],"correct":0,"scaffold":"none","question":"start+duration","scenario":"axis","graph":"triangular","condition":2,"session":"echo","experiment":"experiment","subject":"DJ7X4","internal_node_id":"0.0-9.0-0.0","time_elapsed":1176482,"trial_index":31,"trial_type":"html","url":"../views/src/external/stimulus.html","rt":28921},{"block":"triangular_testing","helps":0,"answer":["A"],"clicked":[["answer","clicked"],["M ","false"],["B ","false"],["J ","false"],["N ","false"],["D ","false"],["O ","false"],["K ","false"],["C ","false"],["F ","false"],["I ","false"],["H ","false"],["G ","false"],["L ","false"],["E ","false"],["A ","false"]],"correct":0,"scaffold":"none","question":"during","scenario":"axis","graph":"triangular","condition":2,"session":"echo","experiment":"experiment","subject":"DJ7X4","internal_node_id":"0.0-9.0-7.0","time_elapsed":1200185,"trial_index":32,"trial_type":"html","url":"../views/src/external/stimulus.html","rt":22436},{"block":"triangular_testing","helps":0,"answer":["H","M","O"],"clicked":[["answer","clicked"],["M ","false"],["B ","false"],["J ","false"],["N ","false"],["D ","false"],["O ","false"],["K ","false"],["C ","false"],["F ","false"],["I ","false"],["H ","false"],["G ","false"],["L ","false"],["E ","false"],["A ","false"]],"correct":0,"scaffold":"none","question":"before+overlap","scenario":"axis","graph":"triangular","condition":2,"session":"echo","experiment":"experiment","subject":"DJ7X4","internal_node_id":"0.0-9.0-1.0","time_elapsed":1227588,"trial_index":33,"trial_type":"html","url":"../views/src/external/stimulus.html","rt":26152},{"block":"triangular_testing","helps":0,"answer":["E"],"clicked":[["answer","clicked"],["M ","false"],["B ","false"],["J ","false"],["N ","false"],["D ","false"],["O ","false"],["K ","false"],["C ","false"],["F ","false"],["I ","false"],["H ","false"],["G ","false"],["L ","false"],["E ","false"],["A ","false"]],"correct":0,"scaffold":"none","question":"during+overlap","scenario":"axis","graph":"triangular","condition":2,"session":"echo","experiment":"experiment","subject":"DJ7X4","internal_node_id":"0.0-9.0-3.0","time_elapsed":1260704,"trial_index":34,"trial_type":"html","url":"../views/src/external/stimulus.html","rt":31861},{"block":"triangular_testing","helps":0,"answer":["B","C","J"],"clicked":[["answer","clicked"],["M ","false"],["B ","false"],["J ","false"],["N ","false"],["D ","false"],["O ","false"],["K ","false"],["C ","false"],["F ","false"],["I ","false"],["H ","false"],["G ","false"],["L ","false"],["E ","false"],["A ","false"]],"correct":0,"scaffold":"none","question":"overlap+overlap","scenario":"axis","graph":"triangular","condition":2,"session":"echo","experiment":"experiment","subject":"DJ7X4","internal_node_id":"0.0-9.0-2.0","time_elapsed":1289481,"trial_index":35,"trial_type":"html","url":"../views/src/external/stimulus.html","rt":27527},{"condition":2,"session":"echo","experiment":"experiment","subject":"DJ7X4","internal_node_id":"0.0-10.0","time_elapsed":1301860,"trial_index":36,"trial_type":"single-stim","block":"scenario-draw","key_press":13,"stimulus":"img/jones.png","rt":11375},{"condition":2,"session":"echo","experiment":"experiment","subject":"DJ7X4","internal_node_id":"0.0-11.0","time_elapsed":1745469,"trial_index":37,"trial_type":"html","block":"instructions_drawing","url":"../views/src/external/instructions_draw.html","rt":442445},{"block":"drawingTest","clicked":[["answer","clicked"]],"answer":["I4"],"correct":0,"scaffold":"none","question":"duration","scenario":"jones","graph":"none","condition":2,"session":"echo","experiment":"experiment","subject":"DJ7X4","internal_node_id":"0.0-12.0","time_elapsed":1770371,"trial_index":38,"trial_type":"html","url":"../views/src/external/stimulus.html","rt":23545},{"block":"drawingTest","clicked":[["answer","clicked"]],"answer":["Anne","1-3pm"],"correct":0,"scaffold":"none","question":"overlap","scenario":"jones","graph":"none","condition":2,"session":"echo","experiment":"experiment","subject":"DJ7X4","internal_node_id":"0.0-13.0","time_elapsed":1818714,"trial_index":39,"trial_type":"html","url":"../views/src/external/stimulus.html","rt":47093},{"condition":2,"session":"echo","experiment":"experiment","subject":"DJ7X4","internal_node_id":"0.0-14.0","time_elapsed":1832854,"trial_index":40,"trial_type":"survey-text","block":"demo-1","responses":"{\"Q0\":\"21\",\"Q1\":\"United States\"}","rt":13133},{"condition":2,"session":"echo","experiment":"experiment","subject":"DJ7X4","internal_node_id":"0.0-15.0","time_elapsed":1849652,"trial_index":41,"trial_type":"survey-multi-choice","block":"demo-2","responses":"{\"Q0\":\"English\",\"Q1\":\"Third\",\"Q2\":\"Social Sciences (incl. CogSci)\",\"Q3\":\"Male\",\"Q4\":\"the first one (linear\"}","rt":15779},{"condition":2,"session":"echo","experiment":"experiment","subject":"DJ7X4","internal_node_id":"0.0-16.0","time_elapsed":1859069,"trial_index":42,"trial_type":"html","block":"debrief","url":"../views/src/external/debrief.html","rt":8107}],"__v":0}
