{"_id":{"$oid":"58c1c3645f748c00041bfc0c"},"data":[{"condition":3,"session":"foxtrot","experiment":"experiment","subject":"5SOSL","internal_node_id":"0.0-0.0","time_elapsed":1427,"trial_index":0,"trial_type":"single-stim","block":"phone","key_press":32,"stimulus":"img/phone.png","rt":1422},{"condition":3,"session":"foxtrot","experiment":"experiment","subject":"5SOSL","internal_node_id":"0.0-1.0","time_elapsed":4819,"trial_index":1,"trial_type":"html","block":"consent","url":"../views/src/external/consent.html","rt":2307},{"condition":3,"session":"foxtrot","experiment":"experiment","subject":"5SOSL","internal_node_id":"0.0-2.0","time_elapsed":45183,"trial_index":2,"trial_type":"survey-text","block":"codes","responses":"{\"Q0\":\"FOXTROT\",\"Q1\":\"3\\n3\"}","rt":39360},{"condition":3,"session":"foxtrot","experiment":"experiment","subject":"5SOSL","internal_node_id":"0.0-3.0","time_elapsed":47993,"trial_index":3,"trial_type":"html","block":"instructions_lab","url":"../views/src/external/instructions_lab.html","rt":1713},{"condition":3,"session":"foxtrot","experiment":"experiment","subject":"5SOSL","internal_node_id":"0.0-4.0","time_elapsed":61538,"trial_index":4,"trial_type":"single-stim","block":"scenario-one","key_press":13,"stimulus":"img/longmire.png","rt":12542},{"block":"linear_scaffolded","helps":0,"clicked":[["answer","clicked"],["A ","false"],["M ","false"],["D ","false"],["N ","false"],["B ","false"],["F ","false"],["H ","false"],["G ","false"],["O ","false"],["C ","false"],["J ","false"],["I ","false"],["E ","false"],["L ","false"],["K ","false"]],"answer":["C","D","L"],"correct":1,"scaffold":"show-static","question":"start","scenario":"longmire","graph":"linear","condition":3,"session":"foxtrot","experiment":"experiment","subject":"5SOSL","internal_node_id":"0.0-5.0-0.0","time_elapsed":83695,"trial_index":5,"trial_type":"html","url":"../views/src/external/stimulus.html","rt":20817},{"block":"linear_scaffolded","helps":0,"clicked":[["answer","clicked"],["A ","false"],["M ","false"],["D ","false"],["N ","false"],["B ","false"],["F ","false"],["H ","false"],["G ","false"],["O ","false"],["C ","false"],["J ","false"],["I ","false"],["E ","false"],["L ","false"],["K ","false"]],"answer":["H","J","K","L","M","N","O"],"correct":1,"scaffold":"show-static","question":"end","scenario":"longmire","graph":"linear","condition":3,"session":"foxtrot","experiment":"experiment","subject":"5SOSL","internal_node_id":"0.0-5.0-1.0","time_elapsed":119179,"trial_index":6,"trial_type":"html","url":"../views/src/external/stimulus.html","rt":34218},{"block":"linear_scaffolded","helps":0,"clicked":[["answer","clicked"],["A ","false"],["M ","false"],["D ","false"],["N ","false"],["B ","false"],["F ","false"],["H ","false"],["G ","false"],["O ","false"],["C ","false"],["J ","false"],["I ","false"],["E ","false"],["L ","false"],["K ","false"]],"answer":["O"],"correct":0,"scaffold":"show-static","question":"duration","scenario":"longmire","graph":"linear","condition":3,"session":"foxtrot","experiment":"experiment","subject":"5SOSL","internal_node_id":"0.0-5.0-2.0","time_elapsed":137860,"trial_index":7,"trial_type":"html","url":"../views/src/external/stimulus.html","rt":17429},{"block":"linear_scaffolded","helps":0,"clicked":[["answer","clicked"],["A ","false"],["M ","false"],["D ","false"],["N ","false"],["B ","false"],["F ","false"],["H ","false"],["G ","false"],["O ","false"],["C ","false"],["J ","false"],["I ","false"],["E ","false"],["L ","false"],["K ","false"]],"answer":["1"],"correct":1,"scaffold":"show-static","question":"midpoint","scenario":"longmire","graph":"linear","condition":3,"session":"foxtrot","experiment":"experiment","subject":"5SOSL","internal_node_id":"0.0-5.0-3.0","time_elapsed":151604,"trial_index":8,"trial_type":"html","url":"../views/src/external/stimulus.html","rt":12494},{"block":"linear_scaffolded","helps":0,"clicked":[["answer","clicked"],["A ","false"],["M ","false"],["D ","false"],["N ","false"],["B ","false"],["F ","false"],["H ","false"],["G ","false"],["O ","false"],["C ","false"],["J ","false"],["I ","false"],["E ","false"],["L ","false"],["K ","false"]],"answer":["A"],"correct":1,"scaffold":"show-static","question":"start+overlap","scenario":"longmire","graph":"linear","condition":3,"session":"foxtrot","experiment":"experiment","subject":"5SOSL","internal_node_id":"0.0-5.0-4.0","time_elapsed":172846,"trial_index":9,"trial_type":"html","url":"../views/src/external/stimulus.html","rt":19978},{"block":"linear_testing","helps":0,"clicked":[["answer","clicked"],["A ","false"],["M ","false"],["D ","false"],["N ","false"],["B ","false"],["F ","false"],["H ","false"],["G ","false"],["O ","false"],["C ","false"],["J ","false"],["I ","false"],["E ","false"],["L ","false"],["K ","false"]],"answer":["A","D","F","G","I","J","L","O"],"correct":0,"scaffold":"none","question":"during","scenario":"longmire","graph":"linear","condition":3,"session":"foxtrot","experiment":"experiment","subject":"5SOSL","internal_node_id":"0.0-6.0-7.0","time_elapsed":248554,"trial_index":10,"trial_type":"html","url":"../views/src/external/stimulus.html","rt":74453},{"block":"linear_testing","helps":0,"clicked":[["answer","clicked"],["A ","false"],["M ","false"],["D ","false"],["N ","false"],["B ","false"],["F ","false"],["H ","false"],["G ","false"],["O ","false"],["C ","false"],["J ","false"],["I ","false"],["E ","false"],["L ","false"],["K ","false"]],"answer":["G","O"],"correct":1,"scaffold":"none","question":"contain+duration","scenario":"longmire","graph":"linear","condition":3,"session":"foxtrot","experiment":"experiment","subject":"5SOSL","internal_node_id":"0.0-6.0-4.0","time_elapsed":284927,"trial_index":11,"trial_type":"html","url":"../views/src/external/stimulus.html","rt":34940},{"block":"linear_testing","helps":0,"clicked":[["answer","clicked"],["A ","false"],["M ","false"],["D ","false"],["N ","false"],["B ","false"],["F ","false"],["H ","false"],["G ","false"],["O ","false"],["C ","false"],["J ","false"],["I ","false"],["E ","false"],["L ","false"],["K ","false"]],"answer":["3","4","5"],"correct":0,"scaffold":"none","question":"finishes","scenario":"longmire","graph":"linear","condition":3,"session":"foxtrot","experiment":"experiment","subject":"5SOSL","internal_node_id":"0.0-6.0-6.0","time_elapsed":323283,"trial_index":12,"trial_type":"html","url":"../views/src/external/stimulus.html","rt":37101},{"block":"linear_testing","helps":0,"clicked":[["answer","clicked"],["A ","false"],["M ","false"],["D ","false"],["N ","false"],["B ","false"],["F ","false"],["H ","false"],["G ","false"],["O ","false"],["C ","false"],["J ","false"],["I ","false"],["E ","false"],["L ","false"],["K ","false"]],"answer":["C"],"correct":1,"scaffold":"none","question":"starts+finishes","scenario":"longmire","graph":"linear","condition":3,"session":"foxtrot","experiment":"experiment","subject":"5SOSL","internal_node_id":"0.0-6.0-9.0","time_elapsed":339554,"trial_index":13,"trial_type":"html","url":"../views/src/external/stimulus.html","rt":15016},{"block":"linear_testing","helps":0,"clicked":[["answer","clicked"],["A ","false"],["M ","false"],["D ","false"],["N ","false"],["B ","false"],["F ","false"],["H ","false"],["G ","false"],["O ","false"],["C ","false"],["J ","false"],["I ","false"],["E ","false"],["L ","false"],["K ","false"]],"answer":["A","D"],"correct":0,"scaffold":"none","question":"start+duration","scenario":"longmire","graph":"linear","condition":3,"session":"foxtrot","experiment":"experiment","subject":"5SOSL","internal_node_id":"0.0-6.0-0.0","time_elapsed":362878,"trial_index":14,"trial_type":"html","url":"../views/src/external/stimulus.html","rt":22062},{"block":"linear_testing","helps":0,"clicked":[["answer","clicked"],["A ","false"],["M ","false"],["D ","false"],["N ","false"],["B ","false"],["F ","false"],["H ","false"],["G ","false"],["O ","false"],["C ","false"],["J ","false"],["I ","false"],["E ","false"],["L ","false"],["K ","false"]],"answer":["A","M","N"],"correct":1,"scaffold":"none","question":"overlap+overlap","scenario":"longmire","graph":"linear","condition":3,"session":"foxtrot","experiment":"experiment","subject":"5SOSL","internal_node_id":"0.0-6.0-2.0","time_elapsed":387476,"trial_index":15,"trial_type":"html","url":"../views/src/external/stimulus.html","rt":23344},{"block":"linear_testing","helps":0,"clicked":[["answer","clicked"],["A ","false"],["M ","false"],["D ","false"],["N ","false"],["B ","false"],["F ","false"],["H ","false"],["G ","false"],["O ","false"],["C ","false"],["J ","false"],["I ","false"],["E ","false"],["L ","false"],["K ","false"]],"answer":["O"],"correct":1,"scaffold":"none","question":"meets","scenario":"longmire","graph":"linear","condition":3,"session":"foxtrot","experiment":"experiment","subject":"5SOSL","internal_node_id":"0.0-6.0-8.0","time_elapsed":402998,"trial_index":16,"trial_type":"html","url":"../views/src/external/stimulus.html","rt":14258},{"block":"linear_testing","helps":0,"clicked":[["answer","clicked"],["A ","false"],["M ","false"],["D ","false"],["N ","false"],["B ","false"],["F ","false"],["H ","false"],["G ","false"],["O ","false"],["C ","false"],["J ","false"],["I ","false"],["E ","false"],["L ","false"],["K ","false"]],"answer":["K","L"],"correct":1,"scaffold":"none","question":"during+overlap","scenario":"longmire","graph":"linear","condition":3,"session":"foxtrot","experiment":"experiment","subject":"5SOSL","internal_node_id":"0.0-6.0-3.0","time_elapsed":433295,"trial_index":17,"trial_type":"html","url":"../views/src/external/stimulus.html","rt":29046},{"block":"linear_testing","helps":0,"clicked":[["answer","clicked"],["A ","false"],["M ","false"],["D ","false"],["N ","false"],["B ","false"],["F ","false"],["H ","false"],["G ","false"],["O ","false"],["C ","false"],["J ","false"],["I ","false"],["E ","false"],["L ","false"],["K ","false"]],"answer":["A","B","C","D","F","I"],"correct":1,"scaffold":"none","question":"before+overlap","scenario":"longmire","graph":"linear","condition":3,"session":"foxtrot","experiment":"experiment","subject":"5SOSL","internal_node_id":"0.0-6.0-1.0","time_elapsed":498852,"trial_index":18,"trial_type":"html","url":"../views/src/external/stimulus.html","rt":64309},{"block":"linear_testing","helps":0,"clicked":[["answer","clicked"],["A ","false"],["M ","false"],["D ","false"],["N ","false"],["B ","false"],["F ","false"],["H ","false"],["G ","false"],["O ","false"],["C ","false"],["J ","false"],["I ","false"],["E ","false"],["L ","false"],["K ","false"]],"answer":["6","8","4"],"correct":0,"scaffold":"none","question":"starts","scenario":"longmire","graph":"linear","condition":3,"session":"foxtrot","experiment":"experiment","subject":"5SOSL","internal_node_id":"0.0-6.0-5.0","time_elapsed":530358,"trial_index":19,"trial_type":"html","url":"../views/src/external/stimulus.html","rt":30090},{"condition":3,"session":"foxtrot","experiment":"experiment","subject":"5SOSL","internal_node_id":"0.0-7.0","time_elapsed":534965,"trial_index":20,"trial_type":"single-stim","block":"scenario-two","key_press":13,"stimulus":"img/axis.png","rt":3601},{"block":"triangular_scaffolded","helps":0,"clicked":[["answer","clicked"],["M ","false"],["B ","false"],["J ","false"],["N ","false"],["D ","false"],["O ","false"],["K ","false"],["C ","false"],["F ","false"],["I ","false"],["H ","false"],["G ","false"],["L ","false"],["E ","false"],["A ","false"]],"answer":["G"],"correct":0,"scaffold":"show-static","question":"start","scenario":"axis","graph":"triangular","condition":3,"session":"foxtrot","experiment":"experiment","subject":"5SOSL","internal_node_id":"0.0-8.0-0.0","time_elapsed":552973,"trial_index":21,"trial_type":"html","url":"../views/src/external/stimulus.html","rt":16749},{"block":"triangular_scaffolded","helps":0,"clicked":[["answer","clicked"],["M ","false"],["B ","false"],["J ","false"],["N ","false"],["D ","false"],["O ","false"],["K ","false"],["C ","false"],["F ","false"],["I ","false"],["H ","false"],["G ","false"],["L ","false"],["E ","false"],["A ","false"]],"answer":["1"],"correct":0,"scaffold":"show-static","question":"end","scenario":"axis","graph":"triangular","condition":3,"session":"foxtrot","experiment":"experiment","subject":"5SOSL","internal_node_id":"0.0-8.0-1.0","time_elapsed":563089,"trial_index":22,"trial_type":"html","url":"../views/src/external/stimulus.html","rt":8862},{"block":"triangular_scaffolded","helps":0,"clicked":[["answer","clicked"],["M ","false"],["B ","false"],["J ","false"],["N ","false"],["D ","false"],["O ","false"],["K ","false"],["C ","false"],["F ","false"],["I ","false"],["H ","false"],["G ","false"],["L ","false"],["E ","false"],["A ","false"]],"answer":["A","C","E","G","H","K","L"],"correct":0,"scaffold":"show-static","question":"duration","scenario":"axis","graph":"triangular","condition":3,"session":"foxtrot","experiment":"experiment","subject":"5SOSL","internal_node_id":"0.0-8.0-2.0","time_elapsed":600350,"trial_index":23,"trial_type":"html","url":"../views/src/external/stimulus.html","rt":36008},{"block":"triangular_scaffolded","helps":0,"clicked":[["answer","clicked"],["M ","false"],["B ","false"],["J ","false"],["N ","false"],["D ","false"],["O ","false"],["K ","false"],["C ","false"],["F ","false"],["I ","false"],["H ","false"],["G ","false"],["L ","false"],["E ","false"],["A ","false"]],"answer":["9"],"correct":0,"scaffold":"show-static","question":"midpoint","scenario":"axis","graph":"triangular","condition":3,"session":"foxtrot","experiment":"experiment","subject":"5SOSL","internal_node_id":"0.0-8.0-3.0","time_elapsed":637173,"trial_index":24,"trial_type":"html","url":"../views/src/external/stimulus.html","rt":35565},{"block":"triangular_scaffolded","helps":0,"clicked":[["answer","clicked"],["M ","false"],["B ","false"],["J ","false"],["N ","false"],["D ","false"],["O ","false"],["K ","false"],["C ","false"],["F ","false"],["I ","false"],["H ","false"],["G ","false"],["L ","false"],["E ","false"],["A ","false"]],"answer":["4"],"correct":0,"scaffold":"show-static","question":"start+overlap","scenario":"axis","graph":"triangular","condition":3,"session":"foxtrot","experiment":"experiment","subject":"5SOSL","internal_node_id":"0.0-8.0-4.0","time_elapsed":678387,"trial_index":25,"trial_type":"html","url":"../views/src/external/stimulus.html","rt":39969},{"block":"triangular_testing","helps":0,"answer":["4"],"clicked":[["answer","clicked"],["M ","false"],["B ","false"],["J ","false"],["N ","false"],["D ","false"],["O ","false"],["K ","false"],["C ","false"],["F ","false"],["I ","false"],["H ","false"],["G ","false"],["L ","false"],["E ","false"],["A ","false"]],"correct":0,"scaffold":"none","question":"starts","scenario":"axis","graph":"triangular","condition":3,"session":"foxtrot","experiment":"experiment","subject":"5SOSL","internal_node_id":"0.0-9.0-5.0","time_elapsed":701794,"trial_index":26,"trial_type":"html","url":"../views/src/external/stimulus.html","rt":22159},{"block":"triangular_testing","helps":0,"answer":["A","C","E","F","M"],"clicked":[["answer","clicked"],["M ","false"],["B ","false"],["J ","false"],["N ","false"],["D ","false"],["O ","false"],["K ","false"],["C ","false"],["F ","false"],["I ","false"],["H ","false"],["G ","false"],["L ","false"],["E ","false"],["A ","false"]],"correct":0,"scaffold":"none","question":"during","scenario":"axis","graph":"triangular","condition":3,"session":"foxtrot","experiment":"experiment","subject":"5SOSL","internal_node_id":"0.0-9.0-7.0","time_elapsed":757759,"trial_index":27,"trial_type":"html","url":"../views/src/external/stimulus.html","rt":54716},{"block":"triangular_testing","helps":0,"answer":["E"],"clicked":[["answer","clicked"],["M ","false"],["B ","false"],["J ","false"],["N ","false"],["D ","false"],["O ","false"],["K ","false"],["C ","false"],["F ","false"],["I ","false"],["H ","false"],["G ","false"],["L ","false"],["E ","false"],["A ","false"]],"correct":0,"scaffold":"none","question":"during+overlap","scenario":"axis","graph":"triangular","condition":3,"session":"foxtrot","experiment":"experiment","subject":"5SOSL","internal_node_id":"0.0-9.0-3.0","time_elapsed":793389,"trial_index":28,"trial_type":"html","url":"../views/src/external/stimulus.html","rt":34373},{"block":"triangular_testing","helps":0,"answer":["F"],"clicked":[["answer","clicked"],["M ","false"],["B ","false"],["J ","false"],["N ","false"],["D ","false"],["O ","false"],["K ","false"],["C ","false"],["F ","false"],["I ","false"],["H ","false"],["G ","false"],["L ","false"],["E ","false"],["A ","false"]],"correct":0,"scaffold":"none","question":"meets","scenario":"axis","graph":"triangular","condition":3,"session":"foxtrot","experiment":"experiment","subject":"5SOSL","internal_node_id":"0.0-9.0-8.0","time_elapsed":851571,"trial_index":29,"trial_type":"html","url":"../views/src/external/stimulus.html","rt":56931},{"block":"triangular_testing","helps":0,"answer":["O"],"clicked":[["answer","clicked"],["M ","false"],["B ","false"],["J ","false"],["N ","false"],["D ","false"],["O ","false"],["K ","false"],["C ","false"],["F ","false"],["I ","false"],["H ","false"],["G ","false"],["L ","false"],["E ","false"],["A ","false"]],"correct":0,"scaffold":"none","question":"contain+duration","scenario":"axis","graph":"triangular","condition":3,"session":"foxtrot","experiment":"experiment","subject":"5SOSL","internal_node_id":"0.0-9.0-4.0","time_elapsed":897875,"trial_index":30,"trial_type":"html","url":"../views/src/external/stimulus.html","rt":45052},{"block":"triangular_testing","helps":0,"answer":["O"],"clicked":[["answer","clicked"],["M ","false"],["B ","false"],["J ","false"],["N ","false"],["D ","false"],["O ","false"],["K ","false"],["C ","false"],["F ","false"],["I ","false"],["H ","false"],["G ","false"],["L ","false"],["E ","false"],["A ","false"]],"correct":0,"scaffold":"none","question":"overlap+overlap","scenario":"axis","graph":"triangular","condition":3,"session":"foxtrot","experiment":"experiment","subject":"5SOSL","internal_node_id":"0.0-9.0-2.0","time_elapsed":913929,"trial_index":31,"trial_type":"html","url":"../views/src/external/stimulus.html","rt":14796},{"block":"triangular_testing","helps":0,"answer":["F"],"clicked":[["answer","clicked"],["M ","false"],["B ","false"],["J ","false"],["N ","false"],["D ","false"],["O ","false"],["K ","false"],["C ","false"],["F ","false"],["I ","false"],["H ","false"],["G ","false"],["L ","false"],["E ","false"],["A ","false"]],"correct":0,"scaffold":"none","question":"finishes","scenario":"axis","graph":"triangular","condition":3,"session":"foxtrot","experiment":"experiment","subject":"5SOSL","internal_node_id":"0.0-9.0-6.0","time_elapsed":943670,"trial_index":32,"trial_type":"html","url":"../views/src/external/stimulus.html","rt":28490},{"block":"triangular_testing","helps":0,"answer":["10"],"clicked":[["answer","clicked"],["M ","false"],["B ","false"],["J ","false"],["N ","false"],["D ","false"],["O ","false"],["K ","false"],["C ","false"],["F ","false"],["I ","false"],["H ","false"],["G ","false"],["L ","false"],["E ","false"],["A ","false"]],"correct":0,"scaffold":"none","question":"start+duration","scenario":"axis","graph":"triangular","condition":3,"session":"foxtrot","experiment":"experiment","subject":"5SOSL","internal_node_id":"0.0-9.0-0.0","time_elapsed":960555,"trial_index":33,"trial_type":"html","url":"../views/src/external/stimulus.html","rt":15630},{"block":"triangular_testing","helps":0,"answer":["M"],"clicked":[["answer","clicked"],["M ","false"],["B ","false"],["J ","false"],["N ","false"],["D ","false"],["O ","false"],["K ","false"],["C ","false"],["F ","false"],["I ","false"],["H ","false"],["G ","false"],["L ","false"],["E ","false"],["A ","false"]],"correct":0,"scaffold":"none","question":"starts+finishes","scenario":"axis","graph":"triangular","condition":3,"session":"foxtrot","experiment":"experiment","subject":"5SOSL","internal_node_id":"0.0-9.0-9.0","time_elapsed":976035,"trial_index":34,"trial_type":"html","url":"../views/src/external/stimulus.html","rt":14233},{"block":"triangular_testing","helps":0,"answer":["H"],"clicked":[["answer","clicked"],["M ","false"],["B ","false"],["J ","false"],["N ","false"],["D ","false"],["O ","false"],["K ","false"],["C ","false"],["F ","false"],["I ","false"],["H ","false"],["G ","false"],["L ","false"],["E ","false"],["A ","false"]],"correct":0,"scaffold":"none","question":"before+overlap","scenario":"axis","graph":"triangular","condition":3,"session":"foxtrot","experiment":"experiment","subject":"5SOSL","internal_node_id":"0.0-9.0-1.0","time_elapsed":986585,"trial_index":35,"trial_type":"html","url":"../views/src/external/stimulus.html","rt":9302},{"condition":3,"session":"foxtrot","experiment":"experiment","subject":"5SOSL","internal_node_id":"0.0-10.0","time_elapsed":989236,"trial_index":36,"trial_type":"single-stim","block":"scenario-draw","key_press":13,"stimulus":"img/jones.png","rt":1646},{"condition":3,"session":"foxtrot","experiment":"experiment","subject":"5SOSL","internal_node_id":"0.0-11.0","time_elapsed":1082263,"trial_index":37,"trial_type":"html","block":"instructions_drawing","url":"../views/src/external/instructions_draw.html","rt":91927},{"block":"drawingTest","clicked":[["answer","clicked"]],"answer":["A1"],"correct":0,"scaffold":"none","question":"duration","scenario":"jones","graph":"none","condition":3,"session":"foxtrot","experiment":"experiment","subject":"5SOSL","internal_node_id":"0.0-12.0","time_elapsed":1109098,"trial_index":38,"trial_type":"html","url":"../views/src/external/stimulus.html","rt":25349},{"block":"drawingTest","clicked":[["answer","clicked"]],"answer":["Anne","9-12pm"],"correct":0,"scaffold":"none","question":"overlap","scenario":"jones","graph":"none","condition":3,"session":"foxtrot","experiment":"experiment","subject":"5SOSL","internal_node_id":"0.0-13.0","time_elapsed":1441245,"trial_index":39,"trial_type":"html","url":"../views/src/external/stimulus.html","rt":330887},{"condition":3,"session":"foxtrot","experiment":"experiment","subject":"5SOSL","internal_node_id":"0.0-14.0","time_elapsed":1453996,"trial_index":40,"trial_type":"survey-text","block":"demo-1","responses":"{\"Q0\":\"21\",\"Q1\":\"Philippines\"}","rt":11742},{"condition":3,"session":"foxtrot","experiment":"experiment","subject":"5SOSL","internal_node_id":"0.0-15.0","time_elapsed":1481155,"trial_index":41,"trial_type":"survey-multi-choice","block":"demo-2","responses":"{\"Q0\":\"Other\",\"Q1\":\"Third\",\"Q2\":\"Biomedical \u0026 Health Sciences\",\"Q3\":\"Female\",\"Q4\":\"the first one (linear\"}","rt":26141},{"condition":3,"session":"foxtrot","experiment":"experiment","subject":"5SOSL","internal_node_id":"0.0-16.0","time_elapsed":1564211,"trial_index":42,"trial_type":"html","block":"debrief","url":"../views/src/external/debrief.html","rt":81872}],"__v":0}
{"_id":{"$oid":"58c1c44c5f748c00041bfc0d"},"data":[{"condition":3,"session":"foxtrot","experiment":"experiment","subject":"G1J35","internal_node_id":"0.0-0.0","time_elapsed":20821,"trial_index":0,"trial_type":"single-stim","block":"phone","key_press":32,"stimulus":"img/phone.png","rt":20813},{"condition":3,"session":"foxtrot","experiment":"experiment","subject":"G1J35","internal_node_id":"0.0-1.0","time_elapsed":24602,"trial_index":1,"trial_type":"html","block":"consent","url":"../views/src/external/consent.html","rt":2689},{"condition":3,"session":"foxtrot","experiment":"experiment","subject":"G1J35","internal_node_id":"0.0-2.0","time_elapsed":31245,"trial_index":2,"trial_type":"survey-text","block":"codes","responses":"{\"Q0\":\"FOXTROT\",\"Q1\":\"3\"}","rt":5634},{"condition":3,"session":"foxtrot","experiment":"experiment","subject":"G1J35","internal_node_id":"0.0-3.0","time_elapsed":37320,"trial_index":3,"trial_type":"html","block":"instructions_lab","url":"../views/src/external/instructions_lab.html","rt":4992},{"condition":3,"session":"foxtrot","experiment":"experiment","subject":"G1J35","internal_node_id":"0.0-4.0","time_elapsed":46274,"trial_index":4,"trial_type":"single-stim","block":"scenario-one","key_press":13,"stimulus":"img/longmire.png","rt":7951},{"block":"linear_scaffolded","helps":0,"clicked":[["answer","clicked"],["A ","false"],["M ","false"],["D ","false"],["N ","false"],["B ","false"],["F ","false"],["H ","false"],["G ","false"],["O ","false"],["C ","false"],["J ","false"],["I ","false"],["E ","false"],["L ","false"],["K ","false"]],"answer":["C","D","L"],"correct":1,"scaffold":"show-static","question":"start","scenario":"longmire","graph":"linear","condition":3,"session":"foxtrot","experiment":"experiment","subject":"G1J35","internal_node_id":"0.0-5.0-0.0","time_elapsed":67785,"trial_index":5,"trial_type":"html","url":"../views/src/external/stimulus.html","rt":20133},{"block":"linear_scaffolded","helps":0,"clicked":[["answer","clicked"],["A ","false"],["M ","false"],["D ","false"],["N ","false"],["B ","false"],["F ","false"],["H ","false"],["G ","false"],["O ","false"],["C ","false"],["J ","false"],["I ","false"],["E ","false"],["L ","false"],["K ","false"]],"answer":["E","G"],"correct":0,"scaffold":"show-static","question":"end","scenario":"longmire","graph":"linear","condition":3,"session":"foxtrot","experiment":"experiment","subject":"G1J35","internal_node_id":"0.0-5.0-1.0","time_elapsed":80220,"trial_index":6,"trial_type":"html","url":"../views/src/external/stimulus.html","rt":11182},{"block":"linear_scaffolded","helps":0,"clicked":[["answer","clicked"],["A ","false"],["M ","false"],["D ","false"],["N ","false"],["B ","false"],["F ","false"],["H ","false"],["G ","false"],["O ","false"],["C ","false"],["J ","false"],["I ","false"],["E ","false"],["L ","false"],["K ","false"]],"answer":["G","O"],"correct":1,"scaffold":"show-static","question":"duration","scenario":"longmire","graph":"linear","condition":3,"session":"foxtrot","experiment":"experiment","subject":"G1J35","internal_node_id":"0.0-5.0-2.0","time_elapsed":98893,"trial_index":7,"trial_type":"html","url":"../views/src/external/stimulus.html","rt":17344},{"block":"linear_scaffolded","helps":0,"clicked":[["answer","clicked"],["A ","false"],["M ","false"],["D ","false"],["N ","false"],["B ","false"],["F ","false"],["H ","false"],["G ","false"],["O ","false"],["C ","false"],["J ","false"],["I ","false"],["E ","false"],["L ","false"],["K ","false"]],"answer":["1"],"correct":1,"scaffold":"show-static","question":"midpoint","scenario":"longmire","graph":"linear","condition":3,"session":"foxtrot","experiment":"experiment","subject":"G1J35","internal_node_id":"0.0-5.0-3.0","time_elapsed":111964,"trial_index":8,"trial_type":"html","url":"../views/src/external/stimulus.html","rt":11789},{"block":"linear_scaffolded","helps":0,"clicked":[["answer","clicked"],["A ","false"],["M ","false"],["D ","false"],["N ","false"],["B ","false"],["F ","false"],["H ","false"],["G ","false"],["O ","false"],["C ","false"],["J ","false"],["I ","false"],["E ","false"],["L ","false"],["K ","false"]],"answer":["A"],"correct":1,"scaffold":"show-static","question":"start+overlap","scenario":"longmire","graph":"linear","condition":3,"session":"foxtrot","experiment":"experiment","subject":"G1J35","internal_node_id":"0.0-5.0-4.0","time_elapsed":138248,"trial_index":9,"trial_type":"html","url":"../views/src/external/stimulus.html","rt":25030},{"block":"linear_testing","helps":0,"clicked":[["answer","clicked"],["A ","false"],["M ","false"],["D ","false"],["N ","false"],["B ","false"],["F ","false"],["H ","false"],["G ","false"],["O ","false"],["C ","false"],["J ","false"],["I ","false"],["E ","false"],["L ","false"],["K ","false"]],"answer":["A","M","N"],"correct":1,"scaffold":"none","question":"overlap+overlap","scenario":"longmire","graph":"linear","condition":3,"session":"foxtrot","experiment":"experiment","subject":"G1J35","internal_node_id":"0.0-6.0-2.0","time_elapsed":179658,"trial_index":10,"trial_type":"html","url":"../views/src/external/stimulus.html","rt":40166},{"block":"linear_testing","helps":0,"clicked":[["answer","clicked"],["A ","false"],["M ","false"],["D ","false"],["N ","false"],["B ","false"],["F ","false"],["H ","false"],["G ","false"],["O ","false"],["C ","false"],["J ","false"],["I ","false"],["E ","false"],["L ","false"],["K ","false"]],"answer":["4"],"correct":0,"scaffold":"none","question":"finishes","scenario":"longmire","graph":"linear","condition":3,"session":"foxtrot","experiment":"experiment","subject":"G1J35","internal_node_id":"0.0-6.0-6.0","time_elapsed":221783,"trial_index":11,"trial_type":"html","url":"../views/src/external/stimulus.html","rt":40874},{"block":"linear_testing","helps":0,"clicked":[["answer","clicked"],["A ","false"],["M ","false"],["D ","false"],["N ","false"],["B ","false"],["F ","false"],["H ","false"],["G ","false"],["O ","false"],["C ","false"],["J ","false"],["I ","false"],["E ","false"],["L ","false"],["K ","false"]],"answer":["C"],"correct":1,"scaffold":"none","question":"starts+finishes","scenario":"longmire","graph":"linear","condition":3,"session":"foxtrot","experiment":"experiment","subject":"G1J35","internal_node_id":"0.0-6.0-9.0","time_elapsed":264335,"trial_index":12,"trial_type":"html","url":"../views/src/external/stimulus.html","rt":41298},{"block":"linear_testing","helps":0,"clicked":[["answer","clicked"],["A ","false"],["M ","false"],["D ","false"],["N ","false"],["B ","false"],["F ","false"],["H ","false"],["G ","false"],["O ","false"],["C ","false"],["J ","false"],["I ","false"],["E ","false"],["L ","false"],["K ","false"]],"answer":["G","O"],"correct":1,"scaffold":"none","question":"contain+duration","scenario":"longmire","graph":"linear","condition":3,"session":"foxtrot","experiment":"experiment","subject":"G1J35","internal_node_id":"0.0-6.0-4.0","time_elapsed":297605,"trial_index":13,"trial_type":"html","url":"../views/src/external/stimulus.html","rt":32020},{"block":"linear_testing","helps":0,"clicked":[["answer","clicked"],["A ","false"],["M ","false"],["D ","false"],["N ","false"],["B ","false"],["F ","false"],["H ","false"],["G ","false"],["O ","false"],["C ","false"],["J ","false"],["I ","false"],["E ","false"],["L ","false"],["K ","false"]],"answer":["A","B","C","D","F","G","H","I","J","L","O"],"correct":0,"scaffold":"none","question":"during","scenario":"longmire","graph":"linear","condition":3,"session":"foxtrot","experiment":"experiment","subject":"G1J35","internal_node_id":"0.0-6.0-7.0","time_elapsed":399731,"trial_index":14,"trial_type":"html","url":"../views/src/external/stimulus.html","rt":100711},{"block":"linear_testing","helps":0,"clicked":[["answer","clicked"],["A ","false"],["M ","false"],["D ","false"],["N ","false"],["B ","false"],["F ","false"],["H ","false"],["G ","false"],["O ","false"],["C ","false"],["J ","false"],["I ","false"],["E ","false"],["L ","false"],["K ","false"]],"answer":["A"],"correct":0,"scaffold":"none","question":"before+overlap","scenario":"longmire","graph":"linear","condition":3,"session":"foxtrot","experiment":"experiment","subject":"G1J35","internal_node_id":"0.0-6.0-1.0","time_elapsed":419994,"trial_index":15,"trial_type":"html","url":"../views/src/external/stimulus.html","rt":18903},{"block":"linear_testing","helps":0,"clicked":[["answer","clicked"],["A ","false"],["M ","false"],["D ","false"],["N ","false"],["B ","false"],["F ","false"],["H ","false"],["G ","false"],["O ","false"],["C ","false"],["J ","false"],["I ","false"],["E ","false"],["L ","false"],["K ","false"]],"answer":["A","B","D","F"],"correct":1,"scaffold":"none","question":"start+duration","scenario":"longmire","graph":"linear","condition":3,"session":"foxtrot","experiment":"experiment","subject":"G1J35","internal_node_id":"0.0-6.0-0.0","time_elapsed":454306,"trial_index":16,"trial_type":"html","url":"../views/src/external/stimulus.html","rt":33059},{"block":"linear_testing","helps":0,"clicked":[["answer","clicked"],["A ","false"],["M ","false"],["D ","false"],["N ","false"],["B ","false"],["F ","false"],["H ","false"],["G ","false"],["O ","false"],["C ","false"],["J ","false"],["I ","false"],["E ","false"],["L ","false"],["K ","false"]],"answer":["O"],"correct":1,"scaffold":"none","question":"meets","scenario":"longmire","graph":"linear","condition":3,"session":"foxtrot","experiment":"experiment","subject":"G1J35","internal_node_id":"0.0-6.0-8.0","time_elapsed":468809,"trial_index":17,"trial_type":"html","url":"../views/src/external/stimulus.html","rt":13253},{"block":"linear_testing","helps":0,"clicked":[["answer","clicked"],["A ","false"],["M ","false"],["D ","false"],["N ","false"],["B ","false"],["F ","false"],["H ","true"],["G ","false"],["O ","false"],["C ","false"],["J ","false"],["I ","false"],["E ","false"],["L ","false"],["K ","false"]],"answer":["K","L"],"correct":1,"scaffold":"none","question":"during+overlap","scenario":"longmire","graph":"linear","condition":3,"session":"foxtrot","experiment":"experiment","subject":"G1J35","internal_node_id":"0.0-6.0-3.0","time_elapsed":550102,"trial_index":18,"trial_type":"html","url":"../views/src/external/stimulus.html","rt":80047},{"block":"linear_testing","helps":0,"clicked":[["answer","clicked"],["A ","false"],["M ","false"],["D ","false"],["N ","false"],["B ","false"],["F ","false"],["H ","false"],["G ","false"],["O ","false"],["C ","false"],["J ","false"],["I ","false"],["E ","false"],["L ","false"],["K ","false"]],"answer":["6","8"],"correct":1,"scaffold":"none","question":"starts","scenario":"longmire","graph":"linear","condition":3,"session":"foxtrot","experiment":"experiment","subject":"G1J35","internal_node_id":"0.0-6.0-5.0","time_elapsed":587901,"trial_index":19,"trial_type":"html","url":"../views/src/external/stimulus.html","rt":36441},{"condition":3,"session":"foxtrot","experiment":"experiment","subject":"G1J35","internal_node_id":"0.0-7.0","time_elapsed":596924,"trial_index":20,"trial_type":"single-stim","block":"scenario-two","key_press":13,"stimulus":"img/axis.png","rt":8017},{"block":"triangular_scaffolded","helps":0,"clicked":[["answer","clicked"],["M ","false"],["B ","false"],["J ","false"],["N ","false"],["D ","false"],["O ","false"],["K ","false"],["C ","false"],["F ","false"],["I ","false"],["H ","false"],["G ","false"],["L ","false"],["E ","false"],["A ","false"]],"answer":["H","O"],"correct":1,"scaffold":"show-static","question":"start","scenario":"axis","graph":"triangular","condition":3,"session":"foxtrot","experiment":"experiment","subject":"G1J35","internal_node_id":"0.0-8.0-0.0","time_elapsed":629868,"trial_index":21,"trial_type":"html","url":"../views/src/external/stimulus.html","rt":31690},{"block":"triangular_scaffolded","helps":0,"clicked":[["answer","clicked"],["M ","false"],["B ","false"],["J ","false"],["N ","false"],["D ","false"],["O ","false"],["K ","false"],["C ","false"],["F ","false"],["I ","false"],["H ","false"],["G ","false"],["L ","false"],["E ","false"],["A ","false"]],"answer":["4"],"correct":1,"scaffold":"show-static","question":"end","scenario":"axis","graph":"triangular","condition":3,"session":"foxtrot","experiment":"experiment","subject":"G1J35","internal_node_id":"0.0-8.0-1.0","time_elapsed":637559,"trial_index":22,"trial_type":"html","url":"../views/src/external/stimulus.html","rt":6436},{"block":"triangular_scaffolded","helps":0,"clicked":[["answer","clicked"],["M ","false"],["B ","false"],["J ","false"],["N ","false"],["D ","false"],["O ","false"],["K ","false"],["C ","false"],["F ","false"],["I ","false"],["H ","false"],["G ","false"],["L ","false"],["E ","false"],["A ","false"]],"answer":["A","C","E","F","G","H","I","K","L"],"correct":1,"scaffold":"show-static","question":"duration","scenario":"axis","graph":"triangular","condition":3,"session":"foxtrot","experiment":"experiment","subject":"G1J35","internal_node_id":"0.0-8.0-2.0","time_elapsed":676395,"trial_index":23,"trial_type":"html","url":"../views/src/external/stimulus.html","rt":37573},{"block":"triangular_scaffolded","helps":0,"clicked":[["answer","clicked"],["M ","false"],["B ","false"],["J ","false"],["N ","false"],["D ","false"],["O ","false"],["K ","false"],["C ","false"],["F ","false"],["I ","false"],["H ","false"],["G ","false"],["L ","false"],["E ","false"],["A ","false"]],"answer":["8"],"correct":1,"scaffold":"show-static","question":"midpoint","scenario":"axis","graph":"triangular","condition":3,"session":"foxtrot","experiment":"experiment","subject":"G1J35","internal_node_id":"0.0-8.0-3.0","time_elapsed":707938,"trial_index":24,"trial_type":"html","url":"../views/src/external/stimulus.html","rt":30288},{"block":"triangular_scaffolded","helps":0,"clicked":[["answer","clicked"],["M ","false"],["B ","false"],["J ","false"],["N ","false"],["D ","false"],["O ","false"],["K ","false"],["C ","false"],["F ","false"],["I ","false"],["H ","false"],["G ","false"],["L ","false"],["E ","false"],["A ","false"]],"answer":["7"],"correct":1,"scaffold":"show-static","question":"start+overlap","scenario":"axis","graph":"triangular","condition":3,"session":"foxtrot","experiment":"experiment","subject":"G1J35","internal_node_id":"0.0-8.0-4.0","time_elapsed":766541,"trial_index":25,"trial_type":"html","url":"../views/src/external/stimulus.html","rt":57351},{"block":"triangular_testing","helps":0,"answer":["9"],"clicked":[["answer","clicked"],["M ","false"],["B ","false"],["J ","false"],["N ","false"],["D ","false"],["O ","false"],["K ","false"],["C ","false"],["F ","false"],["I ","false"],["H ","false"],["G ","false"],["L ","false"],["E ","false"],["A ","false"]],"correct":1,"scaffold":"none","question":"start+duration","scenario":"axis","graph":"triangular","condition":3,"session":"foxtrot","experiment":"experiment","subject":"G1J35","internal_node_id":"0.0-9.0-0.0","time_elapsed":790078,"trial_index":26,"trial_type":"html","url":"../views/src/external/stimulus.html","rt":22286},{"block":"triangular_testing","helps":0,"answer":["A","B","C","E","J"],"clicked":[["answer","clicked"],["M ","false"],["B ","false"],["J ","false"],["N ","false"],["D ","false"],["O ","false"],["K ","false"],["C ","false"],["F ","false"],["I ","false"],["H ","false"],["G ","false"],["L ","false"],["E ","false"],["A ","false"]],"correct":1,"scaffold":"none","question":"overlap+overlap","scenario":"axis","graph":"triangular","condition":3,"session":"foxtrot","experiment":"experiment","subject":"G1J35","internal_node_id":"0.0-9.0-2.0","time_elapsed":847649,"trial_index":27,"trial_type":"html","url":"../views/src/external/stimulus.html","rt":56320},{"block":"triangular_testing","helps":0,"answer":["F","G","M","O"],"clicked":[["answer","clicked"],["M ","false"],["B ","false"],["J ","false"],["N ","false"],["D ","false"],["O ","false"],["K ","false"],["C ","false"],["F ","false"],["I ","false"],["H ","false"],["G ","false"],["L ","false"],["E ","false"],["A ","false"]],"correct":1,"scaffold":"none","question":"before+overlap","scenario":"axis","graph":"triangular","condition":3,"session":"foxtrot","experiment":"experiment","subject":"G1J35","internal_node_id":"0.0-9.0-1.0","time_elapsed":883414,"trial_index":28,"trial_type":"html","url":"../views/src/external/stimulus.html","rt":34513},{"block":"triangular_testing","helps":0,"answer":["F","M","O"],"clicked":[["answer","clicked"],["M ","false"],["B ","false"],["J ","false"],["N ","false"],["D ","false"],["O ","false"],["K ","false"],["C ","false"],["F ","false"],["I ","false"],["H ","false"],["G ","false"],["L ","false"],["E ","false"],["A ","false"]],"correct":1,"scaffold":"none","question":"during","scenario":"axis","graph":"triangular","condition":3,"session":"foxtrot","experiment":"experiment","subject":"G1J35","internal_node_id":"0.0-9.0-7.0","time_elapsed":904838,"trial_index":29,"trial_type":"html","url":"../views/src/external/stimulus.html","rt":20173},{"block":"triangular_testing","helps":0,"answer":["G"],"clicked":[["answer","clicked"],["M ","false"],["B ","false"],["J ","false"],["N ","false"],["D ","false"],["O ","false"],["K ","false"],["C ","false"],["F ","false"],["I ","false"],["H ","false"],["G ","false"],["L ","false"],["E ","false"],["A ","false"]],"correct":1,"scaffold":"none","question":"starts+finishes","scenario":"axis","graph":"triangular","condition":3,"session":"foxtrot","experiment":"experiment","subject":"G1J35","internal_node_id":"0.0-9.0-9.0","time_elapsed":919820,"trial_index":30,"trial_type":"html","url":"../views/src/external/stimulus.html","rt":13730},{"block":"triangular_testing","helps":0,"answer":["G","O"],"clicked":[["answer","clicked"],["M ","false"],["B ","false"],["J ","false"],["N ","false"],["D ","false"],["O ","false"],["K ","false"],["C ","false"],["F ","false"],["I ","false"],["H ","false"],["G ","false"],["L ","false"],["E ","false"],["A ","false"]],"correct":1,"scaffold":"none","question":"finishes","scenario":"axis","graph":"triangular","condition":3,"session":"foxtrot","experiment":"experiment","subject":"G1J35","internal_node_id":"0.0-9.0-6.0","time_elapsed":929844,"trial_index":31,"trial_type":"html","url":"../views/src/external/stimulus.html","rt":8768},{"block":"triangular_testing","helps":0,"answer":["A"],"clicked":[["answer","clicked"],["M ","false"],["B ","false"],["J ","false"],["N ","false"],["D ","false"],["O ","false"],["K ","false"],["C ","false"],["F ","false"],["I ","false"],["H ","false"],["G ","false"],["L ","false"],["E ","false"],["A ","false"]],"correct":1,"scaffold":"none","question":"during+overlap","scenario":"axis","graph":"triangular","condition":3,"session":"foxtrot","experiment":"experiment","subject":"G1J35","internal_node_id":"0.0-9.0-3.0","time_elapsed":1005002,"trial_index":32,"trial_type":"html","url":"../views/src/external/stimulus.html","rt":73895},{"block":"triangular_testing","helps":0,"answer":["D","M","N","O"],"clicked":[["answer","clicked"],["M ","false"],["B ","false"],["J ","false"],["N ","false"],["D ","false"],["O ","false"],["K ","false"],["C ","false"],["F ","false"],["I ","false"],["H ","false"],["G ","false"],["L ","false"],["E ","false"],["A ","false"]],"correct":1,"scaffold":"none","question":"contain+duration","scenario":"axis","graph":"triangular","condition":3,"session":"foxtrot","experiment":"experiment","subject":"G1J35","internal_node_id":"0.0-9.0-4.0","time_elapsed":1034241,"trial_index":33,"trial_type":"html","url":"../views/src/external/stimulus.html","rt":27876},{"block":"triangular_testing","helps":0,"answer":["4"],"clicked":[["answer","clicked"],["M ","false"],["B ","false"],["J ","false"],["N ","false"],["D ","false"],["O ","false"],["K ","false"],["C ","false"],["F ","false"],["I ","false"],["H ","false"],["G ","false"],["L ","false"],["E ","false"],["A ","false"]],"correct":0,"scaffold":"none","question":"starts","scenario":"axis","graph":"triangular","condition":3,"session":"foxtrot","experiment":"experiment","subject":"G1J35","internal_node_id":"0.0-9.0-5.0","time_elapsed":1049256,"trial_index":34,"trial_type":"html","url":"../views/src/external/stimulus.html","rt":13757},{"block":"triangular_testing","helps":0,"answer":["G"],"clicked":[["answer","clicked"],["M ","false"],["B ","false"],["J ","false"],["N ","true"],["D ","false"],["O ","false"],["K ","true"],["C ","false"],["F ","false"],["I ","false"],["H ","false"],["G ","false"],["L ","false"],["E ","false"],["A ","false"]],"correct":1,"scaffold":"none","question":"meets","scenario":"axis","graph":"triangular","condition":3,"session":"foxtrot","experiment":"experiment","subject":"G1J35","internal_node_id":"0.0-9.0-8.0","time_elapsed":1096267,"trial_index":35,"trial_type":"html","url":"../views/src/external/stimulus.html","rt":45755},{"condition":3,"session":"foxtrot","experiment":"experiment","subject":"G1J35","internal_node_id":"0.0-10.0","time_elapsed":1103544,"trial_index":36,"trial_type":"single-stim","block":"scenario-draw","key_press":13,"stimulus":"img/jones.png","rt":6272},{"condition":3,"session":"foxtrot","experiment":"experiment","subject":"G1J35","internal_node_id":"0.0-11.0","time_elapsed":1239160,"trial_index":37,"trial_type":"html","block":"instructions_drawing","url":"../views/src/external/instructions_draw.html","rt":134473},{"block":"drawingTest","clicked":[["answer","clicked"]],"answer":["C1"],"correct":1,"scaffold":"none","question":"duration","scenario":"jones","graph":"none","condition":3,"session":"foxtrot","experiment":"experiment","subject":"G1J35","internal_node_id":"0.0-12.0","time_elapsed":1679060,"trial_index":38,"trial_type":"html","url":"../views/src/external/stimulus.html","rt":438564},{"block":"drawingTest","clicked":[["answer","clicked"]],"answer":["Chris","3-4pm"],"correct":1,"scaffold":"none","question":"overlap","scenario":"jones","graph":"none","condition":3,"session":"foxtrot","experiment":"experiment","subject":"G1J35","internal_node_id":"0.0-13.0","time_elapsed":1729940,"trial_index":39,"trial_type":"html","url":"../views/src/external/stimulus.html","rt":49524},{"condition":3,"session":"foxtrot","experiment":"experiment","subject":"G1J35","internal_node_id":"0.0-14.0","time_elapsed":1747657,"trial_index":40,"trial_type":"survey-text","block":"demo-1","responses":"{\"Q0\":\"20\",\"Q1\":\"usa\"}","rt":16708},{"condition":3,"session":"foxtrot","experiment":"experiment","subject":"G1J35","internal_node_id":"0.0-15.0","time_elapsed":1763035,"trial_index":41,"trial_type":"survey-multi-choice","block":"demo-2","responses":"{\"Q0\":\"English\",\"Q1\":\"Third\",\"Q2\":\"Social Sciences (incl. CogSci)\",\"Q3\":\"Female\",\"Q4\":\"the second one (triangular)\"}","rt":14362},{"condition":3,"session":"foxtrot","experiment":"experiment","subject":"G1J35","internal_node_id":"0.0-16.0","time_elapsed":1772431,"trial_index":42,"trial_type":"html","block":"debrief","url":"../views/src/external/debrief.html","rt":8176}],"__v":0}
{"_id":{"$oid":"58c1c4c45f748c00041bfc0e"},"data":[{"condition":2,"session":"foxtrot","experiment":"experiment","subject":"MJGHF","internal_node_id":"0.0-0.0","time_elapsed":278730,"trial_index":0,"trial_type":"single-stim","block":"phone","key_press":13,"stimulus":"img/phone.png","rt":278721},{"condition":2,"session":"foxtrot","experiment":"experiment","subject":"MJGHF","internal_node_id":"0.0-1.0","time_elapsed":284854,"trial_index":1,"trial_type":"html","block":"consent","url":"../views/src/external/consent.html","rt":4939},{"condition":2,"session":"foxtrot","experiment":"experiment","subject":"MJGHF","internal_node_id":"0.0-2.0","time_elapsed":296059,"trial_index":2,"trial_type":"survey-text","block":"codes","responses":"{\"Q0\":\"FOXTROT\",\"Q1\":\"2\"}","rt":10194},{"condition":2,"session":"foxtrot","experiment":"experiment","subject":"MJGHF","internal_node_id":"0.0-3.0","time_elapsed":307769,"trial_index":3,"trial_type":"html","block":"instructions_lab","url":"../views/src/external/instructions_lab.html","rt":10597},{"condition":2,"session":"foxtrot","experiment":"experiment","subject":"MJGHF","internal_node_id":"0.0-4.0","time_elapsed":315770,"trial_index":4,"trial_type":"single-stim","block":"scenario-one","key_press":13,"stimulus":"img/longmire.png","rt":6999},{"block":"linear_scaffolded","helps":0,"clicked":[["answer","clicked"],["A ","false"],["M ","false"],["D ","false"],["N ","false"],["B ","false"],["F ","false"],["H ","false"],["G ","false"],["O ","false"],["C ","false"],["J ","false"],["I ","false"],["E ","false"],["L ","false"],["K ","false"]],"answer":["C","D","L"],"correct":1,"scaffold":"describe-how","question":"start","scenario":"longmire","graph":"linear","condition":2,"session":"foxtrot","experiment":"experiment","subject":"MJGHF","internal_node_id":"0.0-5.0-0.0","time_elapsed":369260,"trial_index":5,"trial_type":"html","url":"../views/src/external/stimulus.html","rt":52149},{"block":"linear_scaffolded","helps":0,"clicked":[["answer","clicked"],["A ","false"],["M ","false"],["D ","false"],["N ","false"],["B ","false"],["F ","false"],["H ","false"],["G ","false"],["O ","false"],["C ","false"],["J ","false"],["I ","false"],["E ","false"],["L ","false"],["K ","false"]],"answer":["A","D","H","J","K","L","O"],"correct":0,"scaffold":"describe-how","question":"end","scenario":"longmire","graph":"linear","condition":2,"session":"foxtrot","experiment":"experiment","subject":"MJGHF","internal_node_id":"0.0-5.0-1.0","time_elapsed":408139,"trial_index":6,"trial_type":"html","url":"../views/src/external/stimulus.html","rt":37628},{"block":"linear_scaffolded","helps":0,"clicked":[["answer","clicked"],["A ","false"],["M ","false"],["D ","false"],["N ","false"],["B ","false"],["F ","false"],["H ","false"],["G ","false"],["O ","false"],["C ","false"],["J ","false"],["I ","false"],["E ","false"],["L ","false"],["K ","false"]],"answer":["G","O"],"correct":1,"scaffold":"describe-how","question":"duration","scenario":"longmire","graph":"linear","condition":2,"session":"foxtrot","experiment":"experiment","subject":"MJGHF","internal_node_id":"0.0-5.0-2.0","time_elapsed":438806,"trial_index":7,"trial_type":"html","url":"../views/src/external/stimulus.html","rt":29381},{"block":"linear_scaffolded","helps":0,"clicked":[["answer","clicked"],["A ","false"],["M ","false"],["D ","false"],["N ","false"],["B ","false"],["F ","false"],["H ","false"],["G ","false"],["O ","false"],["C ","false"],["J ","false"],["I ","false"],["E ","false"],["L ","false"],["K ","false"]],"answer":["1"],"correct":1,"scaffold":"describe-how","question":"midpoint","scenario":"longmire","graph":"linear","condition":2,"session":"foxtrot","experiment":"experiment","subject":"MJGHF","internal_node_id":"0.0-5.0-3.0","time_elapsed":455615,"trial_index":8,"trial_type":"html","url":"../views/src/external/stimulus.html","rt":15566},{"block":"linear_scaffolded","helps":0,"clicked":[["answer","clicked"],["A ","false"],["M ","false"],["D ","false"],["N ","false"],["B ","false"],["F ","false"],["H ","false"],["G ","false"],["O ","false"],["C ","false"],["J ","false"],["I ","false"],["E ","false"],["L ","false"],["K ","false"]],"answer":["A"],"correct":1,"scaffold":"describe-how","question":"start+overlap","scenario":"longmire","graph":"linear","condition":2,"session":"foxtrot","experiment":"experiment","subject":"MJGHF","internal_node_id":"0.0-5.0-4.0","time_elapsed":469104,"trial_index":9,"trial_type":"html","url":"../views/src/external/stimulus.html","rt":12245},{"block":"linear_testing","helps":0,"clicked":[["answer","clicked"],["A ","false"],["M ","false"],["D ","false"],["N ","false"],["B ","false"],["F ","false"],["H ","false"],["G ","false"],["O ","false"],["C ","false"],["J ","false"],["I ","false"],["E ","false"],["L ","false"],["K ","false"]],"answer":["K","L"],"correct":1,"scaffold":"none","question":"during+overlap","scenario":"longmire","graph":"linear","condition":2,"session":"foxtrot","experiment":"experiment","subject":"MJGHF","internal_node_id":"0.0-6.0-3.0","time_elapsed":508173,"trial_index":10,"trial_type":"html","url":"../views/src/external/stimulus.html","rt":37818},{"block":"linear_testing","helps":0,"clicked":[["answer","clicked"],["A ","false"],["M ","false"],["D ","false"],["N ","false"],["B ","false"],["F ","false"],["H ","false"],["G ","false"],["O ","false"],["C ","false"],["J ","false"],["I ","false"],["E ","false"],["L ","false"],["K ","false"]],"answer":["4","5"],"correct":1,"scaffold":"none","question":"finishes","scenario":"longmire","graph":"linear","condition":2,"session":"foxtrot","experiment":"experiment","subject":"MJGHF","internal_node_id":"0.0-6.0-6.0","time_elapsed":548529,"trial_index":11,"trial_type":"html","url":"../views/src/external/stimulus.html","rt":39094},{"block":"linear_testing","helps":0,"clicked":[["answer","clicked"],["A ","false"],["M ","false"],["D ","false"],["N ","false"],["B ","false"],["F ","false"],["H ","false"],["G ","false"],["O ","false"],["C ","false"],["J ","false"],["I ","false"],["E ","false"],["L ","false"],["K ","false"]],"answer":["A","D","M","N"],"correct":0,"scaffold":"none","question":"meets","scenario":"longmire","graph":"linear","condition":2,"session":"foxtrot","experiment":"experiment","subject":"MJGHF","internal_node_id":"0.0-6.0-8.0","time_elapsed":624694,"trial_index":12,"trial_type":"html","url":"../views/src/external/stimulus.html","rt":74924},{"block":"linear_testing","helps":0,"clicked":[["answer","clicked"],["A ","false"],["M ","false"],["D ","false"],["N ","false"],["B ","false"],["F ","false"],["H ","false"],["G ","false"],["O ","false"],["C ","false"],["J ","false"],["I ","false"],["E ","false"],["L ","false"],["K ","false"]],"answer":["A","B","D","F"],"correct":1,"scaffold":"none","question":"start+duration","scenario":"longmire","graph":"linear","condition":2,"session":"foxtrot","experiment":"experiment","subject":"MJGHF","internal_node_id":"0.0-6.0-0.0","time_elapsed":658586,"trial_index":13,"trial_type":"html","url":"../views/src/external/stimulus.html","rt":32541},{"block":"linear_testing","helps":0,"clicked":[["answer","clicked"],["A ","false"],["M ","false"],["D ","false"],["N ","false"],["B ","false"],["F ","false"],["H ","false"],["G ","false"],["O ","false"],["C ","false"],["J ","false"],["I ","false"],["E ","false"],["L ","false"],["K ","false"]],"answer":["6","8"],"correct":1,"scaffold":"none","question":"starts","scenario":"longmire","graph":"linear","condition":2,"session":"foxtrot","experiment":"experiment","subject":"MJGHF","internal_node_id":"0.0-6.0-5.0","time_elapsed":701751,"trial_index":14,"trial_type":"html","url":"../views/src/external/stimulus.html","rt":41898},{"block":"linear_testing","helps":0,"clicked":[["answer","clicked"],["A ","false"],["M ","false"],["D ","false"],["N ","false"],["B ","false"],["F ","false"],["H ","false"],["G ","false"],["O ","false"],["C ","false"],["J ","false"],["I ","false"],["E ","false"],["L ","false"],["K ","false"]],"answer":["A","M","N"],"correct":1,"scaffold":"none","question":"overlap+overlap","scenario":"longmire","graph":"linear","condition":2,"session":"foxtrot","experiment":"experiment","subject":"MJGHF","internal_node_id":"0.0-6.0-2.0","time_elapsed":730910,"trial_index":15,"trial_type":"html","url":"../views/src/external/stimulus.html","rt":27911},{"block":"linear_testing","helps":0,"clicked":[["answer","clicked"],["A ","false"],["M ","false"],["D ","false"],["N ","false"],["B ","false"],["F ","false"],["H ","false"],["G ","false"],["O ","false"],["C ","false"],["J ","false"],["I ","false"],["E ","false"],["L ","false"],["K ","false"]],"answer":["G","O"],"correct":1,"scaffold":"none","question":"contain+duration","scenario":"longmire","graph":"linear","condition":2,"session":"foxtrot","experiment":"experiment","subject":"MJGHF","internal_node_id":"0.0-6.0-4.0","time_elapsed":762599,"trial_index":16,"trial_type":"html","url":"../views/src/external/stimulus.html","rt":30434},{"block":"linear_testing","helps":0,"clicked":[["answer","clicked"],["A ","false"],["M ","false"],["D ","false"],["N ","false"],["B ","false"],["F ","false"],["H ","false"],["G ","false"],["O ","false"],["C ","false"],["J ","false"],["I ","false"],["E ","false"],["L ","false"],["K ","false"]],"answer":["A","B","C","D","F","I"],"correct":1,"scaffold":"none","question":"before+overlap","scenario":"longmire","graph":"linear","condition":2,"session":"foxtrot","experiment":"experiment","subject":"MJGHF","internal_node_id":"0.0-6.0-1.0","time_elapsed":811238,"trial_index":17,"trial_type":"html","url":"../views/src/external/stimulus.html","rt":47375},{"block":"linear_testing","helps":0,"clicked":[["answer","clicked"],["A ","false"],["M ","false"],["D ","false"],["N ","false"],["B ","false"],["F ","false"],["H ","false"],["G ","false"],["O ","false"],["C ","false"],["J ","false"],["I ","false"],["E ","false"],["L ","false"],["K ","false"]],"answer":["C"],"correct":1,"scaffold":"none","question":"starts+finishes","scenario":"longmire","graph":"linear","condition":2,"session":"foxtrot","experiment":"experiment","subject":"MJGHF","internal_node_id":"0.0-6.0-9.0","time_elapsed":836729,"trial_index":18,"trial_type":"html","url":"../views/src/external/stimulus.html","rt":24239},{"block":"linear_testing","helps":0,"clicked":[["answer","clicked"],["A ","false"],["M ","false"],["D ","false"],["N ","false"],["B ","false"],["F ","false"],["H ","false"],["G ","false"],["O ","false"],["C ","false"],["J ","false"],["I ","false"],["E ","false"],["L ","false"],["K ","false"]],"answer":["B","C","D","F","G","H","I","J","L","O"],"correct":0,"scaffold":"none","question":"during","scenario":"longmire","graph":"linear","condition":2,"session":"foxtrot","experiment":"experiment","subject":"MJGHF","internal_node_id":"0.0-6.0-7.0","time_elapsed":937971,"trial_index":19,"trial_type":"html","url":"../views/src/external/stimulus.html","rt":99987},{"condition":2,"session":"foxtrot","experiment":"experiment","subject":"MJGHF","internal_node_id":"0.0-7.0","time_elapsed":948907,"trial_index":20,"trial_type":"single-stim","block":"scenario-two","key_press":13,"stimulus":"img/axis.png","rt":9931},{"block":"triangular_scaffolded","helps":0,"clicked":[["answer","clicked"],["M ","false"],["B ","false"],["J ","false"],["N ","false"],["D ","false"],["O ","false"],["K ","false"],["C ","false"],["F ","false"],["I ","false"],["H ","false"],["G ","false"],["L ","false"],["E ","false"],["A ","false"]],"answer":["H","O"],"correct":1,"scaffold":"describe-how","question":"start","scenario":"axis","graph":"triangular","condition":2,"session":"foxtrot","experiment":"experiment","subject":"MJGHF","internal_node_id":"0.0-8.0-0.0","time_elapsed":1051331,"trial_index":21,"trial_type":"html","url":"../views/src/external/stimulus.html","rt":101160},{"block":"triangular_scaffolded","helps":0,"clicked":[["answer","clicked"],["M ","false"],["B ","false"],["J ","false"],["N ","false"],["D ","false"],["O ","false"],["K ","false"],["C ","false"],["F ","false"],["I ","false"],["H ","false"],["G ","false"],["L ","false"],["E ","false"],["A ","false"]],"answer":["4"],"correct":1,"scaffold":"describe-how","question":"end","scenario":"axis","graph":"triangular","condition":2,"session":"foxtrot","experiment":"experiment","subject":"MJGHF","internal_node_id":"0.0-8.0-1.0","time_elapsed":1069675,"trial_index":22,"trial_type":"html","url":"../views/src/external/stimulus.html","rt":16939},{"block":"triangular_scaffolded","helps":0,"clicked":[["answer","clicked"],["M ","false"],["B ","false"],["J ","false"],["N ","false"],["D ","false"],["O ","false"],["K ","false"],["C ","false"],["F ","false"],["I ","false"],["H ","false"],["G ","false"],["L ","false"],["E ","false"],["A ","false"]],"answer":["A","C","E","F","G","H","I","K","L"],"correct":1,"scaffold":"describe-how","question":"duration","scenario":"axis","graph":"triangular","condition":2,"session":"foxtrot","experiment":"experiment","subject":"MJGHF","internal_node_id":"0.0-8.0-2.0","time_elapsed":1097981,"trial_index":23,"trial_type":"html","url":"../views/src/external/stimulus.html","rt":27056},{"block":"triangular_scaffolded","helps":0,"clicked":[["answer","clicked"],["M ","false"],["B ","false"],["J ","false"],["N ","false"],["D ","false"],["O ","false"],["K ","false"],["C ","false"],["F ","false"],["I ","false"],["H ","false"],["G ","false"],["L ","false"],["E ","false"],["A ","false"]],"answer":["8"],"correct":1,"scaffold":"describe-how","question":"midpoint","scenario":"axis","graph":"triangular","condition":2,"session":"foxtrot","experiment":"experiment","subject":"MJGHF","internal_node_id":"0.0-8.0-3.0","time_elapsed":1132432,"trial_index":24,"trial_type":"html","url":"../views/src/external/stimulus.html","rt":33198},{"block":"triangular_scaffolded","helps":0,"clicked":[["answer","clicked"],["M ","false"],["B ","false"],["J ","false"],["N ","false"],["D ","false"],["O ","false"],["K ","false"],["C ","false"],["F ","false"],["I ","false"],["H ","false"],["G ","false"],["L ","false"],["E ","false"],["A ","false"]],"answer":["7"],"correct":1,"scaffold":"describe-how","question":"start+overlap","scenario":"axis","graph":"triangular","condition":2,"session":"foxtrot","experiment":"experiment","subject":"MJGHF","internal_node_id":"0.0-8.0-4.0","time_elapsed":1177573,"trial_index":25,"trial_type":"html","url":"../views/src/external/stimulus.html","rt":43892},{"block":"triangular_testing","helps":0,"answer":["F","G","M","O"],"clicked":[["answer","clicked"],["M ","false"],["B ","false"],["J ","false"],["N ","false"],["D ","false"],["O ","false"],["K ","false"],["C ","false"],["F ","false"],["I ","false"],["H ","false"],["G ","false"],["L ","false"],["E ","false"],["A ","false"]],"correct":1,"scaffold":"none","question":"before+overlap","scenario":"axis","graph":"triangular","condition":2,"session":"foxtrot","experiment":"experiment","subject":"MJGHF","internal_node_id":"0.0-9.0-1.0","time_elapsed":1237529,"trial_index":26,"trial_type":"html","url":"../views/src/external/stimulus.html","rt":58703},{"block":"triangular_testing","helps":0,"answer":["F","M","O"],"clicked":[["answer","clicked"],["M ","false"],["B ","false"],["J ","false"],["N ","false"],["D ","false"],["O ","false"],["K ","false"],["C ","false"],["F ","false"],["I ","false"],["H ","false"],["G ","false"],["L ","false"],["E ","false"],["A ","false"]],"correct":1,"scaffold":"none","question":"during","scenario":"axis","graph":"triangular","condition":2,"session":"foxtrot","experiment":"experiment","subject":"MJGHF","internal_node_id":"0.0-9.0-7.0","time_elapsed":1250713,"trial_index":27,"trial_type":"html","url":"../views/src/external/stimulus.html","rt":11806},{"block":"triangular_testing","helps":0,"answer":["9"],"clicked":[["answer","clicked"],["M ","false"],["B ","false"],["J ","false"],["N ","false"],["D ","false"],["O ","false"],["K ","false"],["C ","false"],["F ","false"],["I ","false"],["H ","false"],["G ","false"],["L ","false"],["E ","false"],["A ","false"]],"correct":1,"scaffold":"none","question":"start+duration","scenario":"axis","graph":"triangular","condition":2,"session":"foxtrot","experiment":"experiment","subject":"MJGHF","internal_node_id":"0.0-9.0-0.0","time_elapsed":1273955,"trial_index":28,"trial_type":"html","url":"../views/src/external/stimulus.html","rt":21992},{"block":"triangular_testing","helps":0,"answer":["M","O"],"clicked":[["answer","clicked"],["M ","false"],["B ","false"],["J ","false"],["N ","false"],["D ","false"],["O ","false"],["K ","false"],["C ","false"],["F ","false"],["I ","false"],["H ","false"],["G ","false"],["L ","false"],["E ","false"],["A ","false"]],"correct":0,"scaffold":"none","question":"meets","scenario":"axis","graph":"triangular","condition":2,"session":"foxtrot","experiment":"experiment","subject":"MJGHF","internal_node_id":"0.0-9.0-8.0","time_elapsed":1301930,"trial_index":29,"trial_type":"html","url":"../views/src/external/stimulus.html","rt":26724},{"block":"triangular_testing","helps":0,"answer":["D","M","N","O"],"clicked":[["answer","clicked"],["M ","false"],["B ","false"],["J ","false"],["N ","false"],["D ","false"],["O ","false"],["K ","false"],["C ","false"],["F ","false"],["I ","false"],["H ","false"],["G ","false"],["L ","false"],["E ","false"],["A ","false"]],"correct":1,"scaffold":"none","question":"contain+duration","scenario":"axis","graph":"triangular","condition":2,"session":"foxtrot","experiment":"experiment","subject":"MJGHF","internal_node_id":"0.0-9.0-4.0","time_elapsed":1348207,"trial_index":30,"trial_type":"html","url":"../views/src/external/stimulus.html","rt":45008},{"block":"triangular_testing","helps":0,"answer":["6"],"clicked":[["answer","clicked"],["M ","false"],["B ","false"],["J ","false"],["N ","false"],["D ","false"],["O ","false"],["K ","false"],["C ","false"],["F ","false"],["I ","false"],["H ","false"],["G ","false"],["L ","false"],["E ","false"],["A ","false"]],"correct":1,"scaffold":"none","question":"starts","scenario":"axis","graph":"triangular","condition":2,"session":"foxtrot","experiment":"experiment","subject":"MJGHF","internal_node_id":"0.0-9.0-5.0","time_elapsed":1389535,"trial_index":31,"trial_type":"html","url":"../views/src/external/stimulus.html","rt":40079},{"block":"triangular_testing","helps":0,"answer":["G"],"clicked":[["answer","clicked"],["M ","false"],["B ","false"],["J ","false"],["N ","false"],["D ","false"],["O ","false"],["K ","false"],["C ","false"],["F ","false"],["I ","false"],["H ","false"],["G ","false"],["L ","false"],["E ","false"],["A ","false"]],"correct":1,"scaffold":"none","question":"starts+finishes","scenario":"axis","graph":"triangular","condition":2,"session":"foxtrot","experiment":"experiment","subject":"MJGHF","internal_node_id":"0.0-9.0-9.0","time_elapsed":1401279,"trial_index":32,"trial_type":"html","url":"../views/src/external/stimulus.html","rt":10493},{"block":"triangular_testing","helps":0,"answer":["A"],"clicked":[["answer","clicked"],["M ","false"],["B ","false"],["J ","false"],["N ","false"],["D ","false"],["O ","false"],["K ","false"],["C ","false"],["F ","false"],["I ","false"],["H ","false"],["G ","false"],["L ","false"],["E ","false"],["A ","false"]],"correct":1,"scaffold":"none","question":"during+overlap","scenario":"axis","graph":"triangular","condition":2,"session":"foxtrot","experiment":"experiment","subject":"MJGHF","internal_node_id":"0.0-9.0-3.0","time_elapsed":1457944,"trial_index":33,"trial_type":"html","url":"../views/src/external/stimulus.html","rt":55408},{"block":"triangular_testing","helps":0,"answer":["A","B","C","E","J"],"clicked":[["answer","clicked"],["M ","false"],["B ","false"],["J ","false"],["N ","false"],["D ","false"],["O ","false"],["K ","false"],["C ","false"],["F ","false"],["I ","false"],["H ","false"],["G ","false"],["L ","false"],["E ","false"],["A ","false"]],"correct":1,"scaffold":"none","question":"overlap+overlap","scenario":"axis","graph":"triangular","condition":2,"session":"foxtrot","experiment":"experiment","subject":"MJGHF","internal_node_id":"0.0-9.0-2.0","time_elapsed":1499767,"trial_index":34,"trial_type":"html","url":"../views/src/external/stimulus.html","rt":40566},{"block":"triangular_testing","helps":0,"answer":["G","O"],"clicked":[["answer","clicked"],["M ","false"],["B ","false"],["J ","false"],["N ","false"],["D ","false"],["O ","false"],["K ","false"],["C ","false"],["F ","false"],["I ","false"],["H ","false"],["G ","false"],["L ","false"],["E ","false"],["A ","false"]],"correct":1,"scaffold":"none","question":"finishes","scenario":"axis","graph":"triangular","condition":2,"session":"foxtrot","experiment":"experiment","subject":"MJGHF","internal_node_id":"0.0-9.0-6.0","time_elapsed":1510245,"trial_index":35,"trial_type":"html","url":"../views/src/external/stimulus.html","rt":9224},{"condition":2,"session":"foxtrot","experiment":"experiment","subject":"MJGHF","internal_node_id":"0.0-10.0","time_elapsed":1553163,"trial_index":36,"trial_type":"single-stim","block":"scenario-draw","key_press":13,"stimulus":"img/jones.png","rt":41912},{"condition":2,"session":"foxtrot","experiment":"experiment","subject":"MJGHF","internal_node_id":"0.0-11.0","time_elapsed":1933278,"trial_index":37,"trial_type":"html","block":"instructions_drawing","url":"../views/src/external/instructions_draw.html","rt":379022},{"block":"drawingTest","clicked":[["answer","clicked"]],"answer":["C1"],"correct":1,"scaffold":"none","question":"duration","scenario":"jones","graph":"none","condition":2,"session":"foxtrot","experiment":"experiment","subject":"MJGHF","internal_node_id":"0.0-12.0","time_elapsed":1977610,"trial_index":38,"trial_type":"html","url":"../views/src/external/stimulus.html","rt":42978},{"block":"drawingTest","clicked":[["answer","clicked"]],"answer":["Chris","3-4pm"],"correct":1,"scaffold":"none","question":"overlap","scenario":"jones","graph":"none","condition":2,"session":"foxtrot","experiment":"experiment","subject":"MJGHF","internal_node_id":"0.0-13.0","time_elapsed":2110019,"trial_index":39,"trial_type":"html","url":"../views/src/external/stimulus.html","rt":131148},{"condition":2,"session":"foxtrot","experiment":"experiment","subject":"MJGHF","internal_node_id":"0.0-14.0","time_elapsed":2123031,"trial_index":40,"trial_type":"survey-text","block":"demo-1","responses":"{\"Q0\":\"21\",\"Q1\":\"USA\"}","rt":12005},{"condition":2,"session":"foxtrot","experiment":"experiment","subject":"MJGHF","internal_node_id":"0.0-15.0","time_elapsed":2143127,"trial_index":41,"trial_type":"survey-multi-choice","block":"demo-2","responses":"{\"Q0\":\"Other\",\"Q1\":\"Fourth\",\"Q2\":\"Biomedical \u0026 Health Sciences\",\"Q3\":\"Male\",\"Q4\":\"the second one (triangular)\"}","rt":19075},{"condition":2,"session":"foxtrot","experiment":"experiment","subject":"MJGHF","internal_node_id":"0.0-16.0","time_elapsed":2152293,"trial_index":42,"trial_type":"html","block":"debrief","url":"../views/src/external/debrief.html","rt":7989}],"__v":0}
{"_id":{"$oid":"58c1c4e55f748c00041bfc0f"},"data":[{"condition":0,"session":"foxtrot","experiment":"experiment","subject":"TAL8M","internal_node_id":"0.0-0.0","time_elapsed":144221,"trial_index":0,"trial_type":"single-stim","block":"phone","key_press":13,"stimulus":"img/phone.png","rt":144213},{"condition":0,"session":"foxtrot","experiment":"experiment","subject":"TAL8M","internal_node_id":"0.0-1.0","time_elapsed":151655,"trial_index":1,"trial_type":"html","block":"consent","url":"../views/src/external/consent.html","rt":6116},{"condition":0,"session":"foxtrot","experiment":"experiment","subject":"TAL8M","internal_node_id":"0.0-2.0","time_elapsed":159635,"trial_index":2,"trial_type":"survey-text","block":"codes","responses":"{\"Q0\":\"FOXTROT\",\"Q1\":\"0\"}","rt":6966},{"condition":0,"session":"foxtrot","experiment":"experiment","subject":"TAL8M","internal_node_id":"0.0-3.0","time_elapsed":178722,"trial_index":3,"trial_type":"html","block":"instructions_lab","url":"../views/src/external/instructions_lab.html","rt":17915},{"condition":0,"session":"foxtrot","experiment":"experiment","subject":"TAL8M","internal_node_id":"0.0-4.0","time_elapsed":194359,"trial_index":4,"trial_type":"single-stim","block":"scenario-one","key_press":13,"stimulus":"img/longmire.png","rt":14635},{"block":"linear_scaffolded","helps":0,"clicked":[["answer","clicked"],["A ","false"],["M ","false"],["D ","false"],["N ","false"],["B ","false"],["F ","false"],["H ","false"],["G ","false"],["O ","false"],["C ","false"],["J ","false"],["I ","false"],["E ","false"],["L ","false"],["K ","false"]],"answer":["C","D","L"],"correct":1,"scaffold":"none","question":"start","scenario":"longmire","graph":"linear","condition":0,"session":"foxtrot","experiment":"experiment","subject":"TAL8M","internal_node_id":"0.0-5.0-0.0","time_elapsed":210388,"trial_index":5,"trial_type":"html","url":"../views/src/external/stimulus.html","rt":14515},{"block":"linear_scaffolded","helps":0,"clicked":[["answer","clicked"],["A ","false"],["M ","false"],["D ","false"],["N ","false"],["B ","false"],["F ","false"],["H ","false"],["G ","false"],["O ","false"],["C ","false"],["J ","false"],["I ","false"],["E ","false"],["L ","false"],["K ","false"]],"answer":["H","J","K","L","M","N","O"],"correct":1,"scaffold":"none","question":"end","scenario":"longmire","graph":"linear","condition":0,"session":"foxtrot","experiment":"experiment","subject":"TAL8M","internal_node_id":"0.0-5.0-1.0","time_elapsed":242401,"trial_index":6,"trial_type":"html","url":"../views/src/external/stimulus.html","rt":30724},{"block":"linear_scaffolded","helps":0,"clicked":[["answer","clicked"],["A ","false"],["M ","false"],["D ","false"],["N ","false"],["B ","false"],["F ","false"],["H ","false"],["G ","false"],["O ","false"],["C ","false"],["J ","false"],["I ","false"],["E ","false"],["L ","false"],["K ","false"]],"answer":["G","O"],"correct":1,"scaffold":"none","question":"duration","scenario":"longmire","graph":"linear","condition":0,"session":"foxtrot","experiment":"experiment","subject":"TAL8M","internal_node_id":"0.0-5.0-2.0","time_elapsed":261377,"trial_index":7,"trial_type":"html","url":"../views/src/external/stimulus.html","rt":17706},{"block":"linear_scaffolded","helps":0,"clicked":[["answer","clicked"],["A ","false"],["M ","false"],["D ","false"],["N ","false"],["B ","false"],["F ","false"],["H ","false"],["G ","false"],["O ","false"],["C ","false"],["J ","false"],["I ","false"],["E ","false"],["L ","false"],["K ","false"]],"answer":["1"],"correct":1,"scaffold":"none","question":"midpoint","scenario":"longmire","graph":"linear","condition":0,"session":"foxtrot","experiment":"experiment","subject":"TAL8M","internal_node_id":"0.0-5.0-3.0","time_elapsed":276540,"trial_index":8,"trial_type":"html","url":"../views/src/external/stimulus.html","rt":13911},{"block":"linear_scaffolded","helps":0,"clicked":[["answer","clicked"],["A ","false"],["M ","false"],["D ","false"],["N ","false"],["B ","false"],["F ","false"],["H ","false"],["G ","false"],["O ","false"],["C ","false"],["J ","false"],["I ","false"],["E ","false"],["L ","false"],["K ","false"]],"answer":["A"],"correct":1,"scaffold":"none","question":"start+overlap","scenario":"longmire","graph":"linear","condition":0,"session":"foxtrot","experiment":"experiment","subject":"TAL8M","internal_node_id":"0.0-5.0-4.0","time_elapsed":288436,"trial_index":9,"trial_type":"html","url":"../views/src/external/stimulus.html","rt":10634},{"block":"linear_testing","helps":0,"clicked":[["answer","clicked"],["A ","false"],["M ","false"],["D ","false"],["N ","false"],["B ","false"],["F ","false"],["H ","false"],["G ","false"],["O ","false"],["C ","false"],["J ","false"],["I ","false"],["E ","false"],["L ","false"],["K ","false"]],"answer":["K","L"],"correct":1,"scaffold":"none","question":"during+overlap","scenario":"longmire","graph":"linear","condition":0,"session":"foxtrot","experiment":"experiment","subject":"TAL8M","internal_node_id":"0.0-6.0-3.0","time_elapsed":315804,"trial_index":10,"trial_type":"html","url":"../views/src/external/stimulus.html","rt":26114},{"block":"linear_testing","helps":0,"clicked":[["answer","clicked"],["A ","false"],["M ","false"],["D ","false"],["N ","false"],["B ","false"],["F ","false"],["H ","false"],["G ","false"],["O ","false"],["C ","false"],["J ","false"],["I ","false"],["E ","false"],["L ","false"],["K ","false"]],"answer":["O"],"correct":1,"scaffold":"none","question":"meets","scenario":"longmire","graph":"linear","condition":0,"session":"foxtrot","experiment":"experiment","subject":"TAL8M","internal_node_id":"0.0-6.0-8.0","time_elapsed":335870,"trial_index":11,"trial_type":"html","url":"../views/src/external/stimulus.html","rt":18805},{"block":"linear_testing","helps":0,"clicked":[["answer","clicked"],["A ","false"],["M ","false"],["D ","false"],["N ","false"],["B ","false"],["F ","false"],["H ","false"],["G ","false"],["O ","false"],["C ","false"],["J ","false"],["I ","false"],["E ","false"],["L ","false"],["K ","false"]],"answer":["A","B","D","F"],"correct":0,"scaffold":"none","question":"before+overlap","scenario":"longmire","graph":"linear","condition":0,"session":"foxtrot","experiment":"experiment","subject":"TAL8M","internal_node_id":"0.0-6.0-1.0","time_elapsed":363464,"trial_index":12,"trial_type":"html","url":"../views/src/external/stimulus.html","rt":26327},{"block":"linear_testing","helps":0,"clicked":[["answer","clicked"],["A ","false"],["M ","false"],["D ","false"],["N ","false"],["B ","false"],["F ","false"],["H ","false"],["G ","false"],["O ","false"],["C ","false"],["J ","false"],["I ","false"],["E ","false"],["L ","false"],["K ","false"]],"answer":["B","C","D","F","G","H","I","J","L","O"],"correct":0,"scaffold":"none","question":"during","scenario":"longmire","graph":"linear","condition":0,"session":"foxtrot","experiment":"experiment","subject":"TAL8M","internal_node_id":"0.0-6.0-7.0","time_elapsed":496596,"trial_index":13,"trial_type":"html","url":"../views/src/external/stimulus.html","rt":131882},{"block":"linear_testing","helps":0,"clicked":[["answer","clicked"],["A ","false"],["M ","false"],["D ","false"],["N ","false"],["B ","false"],["F ","false"],["H ","false"],["G ","false"],["O ","false"],["C ","false"],["J ","false"],["I ","false"],["E ","false"],["L ","false"],["K ","false"]],"answer":["4","5"],"correct":1,"scaffold":"none","question":"finishes","scenario":"longmire","graph":"linear","condition":0,"session":"foxtrot","experiment":"experiment","subject":"TAL8M","internal_node_id":"0.0-6.0-6.0","time_elapsed":534582,"trial_index":14,"trial_type":"html","url":"../views/src/external/stimulus.html","rt":36550},{"block":"linear_testing","helps":0,"clicked":[["answer","clicked"],["A ","false"],["M ","false"],["D ","false"],["N ","false"],["B ","false"],["F ","false"],["H ","false"],["G ","false"],["O ","false"],["C ","false"],["J ","false"],["I ","false"],["E ","false"],["L ","false"],["K ","false"]],"answer":["A","B","D","F"],"correct":1,"scaffold":"none","question":"start+duration","scenario":"longmire","graph":"linear","condition":0,"session":"foxtrot","experiment":"experiment","subject":"TAL8M","internal_node_id":"0.0-6.0-0.0","time_elapsed":566551,"trial_index":15,"trial_type":"html","url":"../views/src/external/stimulus.html","rt":30715},{"block":"linear_testing","helps":0,"clicked":[["answer","clicked"],["A ","false"],["M ","false"],["D ","false"],["N ","false"],["B ","false"],["F ","false"],["H ","false"],["G ","false"],["O ","false"],["C ","false"],["J ","false"],["I ","false"],["E ","false"],["L ","false"],["K ","false"]],"answer":["6","8"],"correct":1,"scaffold":"none","question":"starts","scenario":"longmire","graph":"linear","condition":0,"session":"foxtrot","experiment":"experiment","subject":"TAL8M","internal_node_id":"0.0-6.0-5.0","time_elapsed":594201,"trial_index":16,"trial_type":"html","url":"../views/src/external/stimulus.html","rt":26408},{"block":"linear_testing","helps":0,"clicked":[["answer","clicked"],["A ","false"],["M ","false"],["D ","false"],["N ","false"],["B ","false"],["F ","false"],["H ","false"],["G ","false"],["O ","false"],["C ","false"],["J ","false"],["I ","false"],["E ","false"],["L ","false"],["K ","false"]],"answer":["C"],"correct":1,"scaffold":"none","question":"starts+finishes","scenario":"longmire","graph":"linear","condition":0,"session":"foxtrot","experiment":"experiment","subject":"TAL8M","internal_node_id":"0.0-6.0-9.0","time_elapsed":613585,"trial_index":17,"trial_type":"html","url":"../views/src/external/stimulus.html","rt":18135},{"block":"linear_testing","helps":0,"clicked":[["answer","clicked"],["A ","false"],["M ","false"],["D ","false"],["N ","false"],["B ","false"],["F ","false"],["H ","false"],["G ","false"],["O ","false"],["C ","false"],["J ","false"],["I ","false"],["E ","false"],["L ","false"],["K ","false"]],"answer":["G","O"],"correct":1,"scaffold":"none","question":"contain+duration","scenario":"longmire","graph":"linear","condition":0,"session":"foxtrot","experiment":"experiment","subject":"TAL8M","internal_node_id":"0.0-6.0-4.0","time_elapsed":641471,"trial_index":18,"trial_type":"html","url":"../views/src/external/stimulus.html","rt":26432},{"block":"linear_testing","helps":0,"clicked":[["answer","clicked"],["A ","false"],["M ","false"],["D ","false"],["N ","false"],["B ","false"],["F ","false"],["H ","false"],["G ","false"],["O ","false"],["C ","false"],["J ","false"],["I ","false"],["E ","false"],["L ","false"],["K ","false"]],"answer":["A","M"],"correct":0,"scaffold":"none","question":"overlap+overlap","scenario":"longmire","graph":"linear","condition":0,"session":"foxtrot","experiment":"experiment","subject":"TAL8M","internal_node_id":"0.0-6.0-2.0","time_elapsed":665156,"trial_index":19,"trial_type":"html","url":"../views/src/external/stimulus.html","rt":22432},{"condition":0,"session":"foxtrot","experiment":"experiment","subject":"TAL8M","internal_node_id":"0.0-7.0","time_elapsed":681649,"trial_index":20,"trial_type":"single-stim","block":"scenario-two","key_press":13,"stimulus":"img/axis.png","rt":15487},{"block":"triangular_scaffolded","helps":0,"clicked":[["answer","clicked"],["M ","false"],["B ","false"],["J ","false"],["N ","false"],["D ","false"],["O ","false"],["K ","false"],["C ","false"],["F ","false"],["I ","false"],["H ","false"],["G ","false"],["L ","false"],["E ","false"],["A ","false"]],"answer":["G"],"correct":0,"scaffold":"none","question":"start","scenario":"axis","graph":"triangular","condition":0,"session":"foxtrot","experiment":"experiment","subject":"TAL8M","internal_node_id":"0.0-8.0-0.0","time_elapsed":694702,"trial_index":21,"trial_type":"html","url":"../views/src/external/stimulus.html","rt":11787},{"block":"triangular_scaffolded","helps":0,"clicked":[["answer","clicked"],["M ","false"],["B ","false"],["J ","false"],["N ","false"],["D ","false"],["O ","false"],["K ","false"],["C ","false"],["F ","false"],["I ","false"],["H ","false"],["G ","false"],["L ","false"],["E ","false"],["A ","false"]],"answer":["1"],"correct":0,"scaffold":"none","question":"end","scenario":"axis","graph":"triangular","condition":0,"session":"foxtrot","experiment":"experiment","subject":"TAL8M","internal_node_id":"0.0-8.0-1.0","time_elapsed":742359,"trial_index":22,"trial_type":"html","url":"../views/src/external/stimulus.html","rt":46405},{"block":"triangular_scaffolded","helps":0,"clicked":[["answer","clicked"],["M ","false"],["B ","false"],["J ","false"],["N ","false"],["D ","false"],["O ","false"],["K ","false"],["C ","false"],["F ","false"],["I ","false"],["H ","false"],["G ","false"],["L ","false"],["E ","false"],["A ","false"]],"answer":["A","C","E","F","G","H","I","K","L"],"correct":1,"scaffold":"none","question":"duration","scenario":"axis","graph":"triangular","condition":0,"session":"foxtrot","experiment":"experiment","subject":"TAL8M","internal_node_id":"0.0-8.0-2.0","time_elapsed":775232,"trial_index":23,"trial_type":"html","url":"../views/src/external/stimulus.html","rt":31600},{"block":"triangular_scaffolded","helps":0,"clicked":[["answer","clicked"],["M ","false"],["B ","false"],["J ","false"],["N ","false"],["D ","false"],["O ","false"],["K ","false"],["C ","false"],["F ","false"],["I ","false"],["H ","false"],["G ","false"],["L ","false"],["E ","false"],["A ","false"]],"answer":["10"],"correct":0,"scaffold":"none","question":"midpoint","scenario":"axis","graph":"triangular","condition":0,"session":"foxtrot","experiment":"experiment","subject":"TAL8M","internal_node_id":"0.0-8.0-3.0","time_elapsed":853469,"trial_index":24,"trial_type":"html","url":"../views/src/external/stimulus.html","rt":76983},{"block":"triangular_scaffolded","helps":0,"clicked":[["answer","clicked"],["M ","false"],["B ","false"],["J ","false"],["N ","false"],["D ","false"],["O ","false"],["K ","false"],["C ","false"],["F ","false"],["I ","false"],["H ","false"],["G ","false"],["L ","false"],["E ","false"],["A ","false"]],"answer":["12"],"correct":0,"scaffold":"none","question":"start+overlap","scenario":"axis","graph":"triangular","condition":0,"session":"foxtrot","experiment":"experiment","subject":"TAL8M","internal_node_id":"0.0-8.0-4.0","time_elapsed":913622,"trial_index":25,"trial_type":"html","url":"../views/src/external/stimulus.html","rt":58738},{"block":"triangular_testing","helps":0,"answer":["A","C","F","H","J","L","M","O"],"clicked":[["answer","clicked"],["M ","false"],["B ","false"],["J ","false"],["N ","false"],["D ","false"],["O ","false"],["K ","false"],["C ","false"],["F ","false"],["I ","false"],["H ","false"],["G ","false"],["L ","false"],["E ","false"],["A ","false"]],"correct":0,"scaffold":"none","question":"before+overlap","scenario":"axis","graph":"triangular","condition":0,"session":"foxtrot","experiment":"experiment","subject":"TAL8M","internal_node_id":"0.0-9.0-1.0","time_elapsed":974630,"trial_index":26,"trial_type":"html","url":"../views/src/external/stimulus.html","rt":59660},{"block":"triangular_testing","helps":0,"answer":[],"clicked":[["answer","clicked"],["M ","false"],["B ","false"],["J ","false"],["N ","false"],["D ","false"],["O ","false"],["K ","false"],["C ","false"],["F ","false"],["I ","false"],["H ","false"],["G ","false"],["L ","false"],["E ","false"],["A ","false"]],"correct":0,"scaffold":"none","question":"during+overlap","scenario":"axis","graph":"triangular","condition":0,"session":"foxtrot","experiment":"experiment","subject":"TAL8M","internal_node_id":"0.0-9.0-3.0","time_elapsed":1010701,"trial_index":27,"trial_type":"html","url":"../views/src/external/stimulus.html","rt":34646},{"block":"triangular_testing","helps":0,"answer":["A","D","O"],"clicked":[["answer","clicked"],["M ","false"],["B ","false"],["J ","false"],["N ","false"],["D ","false"],["O ","false"],["K ","false"],["C ","false"],["F ","false"],["I ","false"],["H ","false"],["G ","false"],["L ","false"],["E ","false"],["A ","false"]],"correct":0,"scaffold":"none","question":"meets","scenario":"axis","graph":"triangular","condition":0,"session":"foxtrot","experiment":"experiment","subject":"TAL8M","internal_node_id":"0.0-9.0-8.0","time_elapsed":1068385,"trial_index":28,"trial_type":"html","url":"../views/src/external/stimulus.html","rt":56437},{"block":"triangular_testing","helps":0,"answer":[],"clicked":[["answer","clicked"],["M ","false"],["B ","false"],["J ","false"],["N ","false"],["D ","false"],["O ","false"],["K ","false"],["C ","false"],["F ","false"],["I ","false"],["H ","false"],["G ","false"],["L ","false"],["E ","false"],["A ","false"]],"correct":0,"scaffold":"none","question":"starts+finishes","scenario":"axis","graph":"triangular","condition":0,"session":"foxtrot","experiment":"experiment","subject":"TAL8M","internal_node_id":"0.0-9.0-9.0","time_elapsed":1110902,"trial_index":29,"trial_type":"html","url":"../views/src/external/stimulus.html","rt":41195},{"block":"triangular_testing","helps":0,"answer":["6"],"clicked":[["answer","clicked"],["M ","false"],["B ","false"],["J ","false"],["N ","false"],["D ","false"],["O ","false"],["K ","false"],["C ","false"],["F ","false"],["I ","false"],["H ","false"],["G ","false"],["L ","false"],["E ","false"],["A ","false"]],"correct":1,"scaffold":"none","question":"starts","scenario":"axis","graph":"triangular","condition":0,"session":"foxtrot","experiment":"experiment","subject":"TAL8M","internal_node_id":"0.0-9.0-5.0","time_elapsed":1144746,"trial_index":30,"trial_type":"html","url":"../views/src/external/stimulus.html","rt":32596},{"block":"triangular_testing","helps":0,"answer":["E"],"clicked":[["answer","clicked"],["M ","false"],["B ","false"],["J ","false"],["N ","false"],["D ","false"],["O ","false"],["K ","false"],["C ","false"],["F ","false"],["I ","false"],["H ","false"],["G ","false"],["L ","false"],["E ","false"],["A ","false"]],"correct":0,"scaffold":"none","question":"overlap+overlap","scenario":"axis","graph":"triangular","condition":0,"session":"foxtrot","experiment":"experiment","subject":"TAL8M","internal_node_id":"0.0-9.0-2.0","time_elapsed":1158978,"trial_index":31,"trial_type":"html","url":"../views/src/external/stimulus.html","rt":12987},{"block":"triangular_testing","helps":0,"answer":["8"],"clicked":[["answer","clicked"],["M ","false"],["B ","false"],["J ","false"],["N ","false"],["D ","false"],["O ","false"],["K ","false"],["C ","false"],["F ","false"],["I ","false"],["H ","false"],["G ","false"],["L ","false"],["E ","false"],["A ","false"]],"correct":0,"scaffold":"none","question":"start+duration","scenario":"axis","graph":"triangular","condition":0,"session":"foxtrot","experiment":"experiment","subject":"TAL8M","internal_node_id":"0.0-9.0-0.0","time_elapsed":1219661,"trial_index":32,"trial_type":"html","url":"../views/src/external/stimulus.html","rt":59433},{"block":"triangular_testing","helps":0,"answer":[],"clicked":[["answer","clicked"],["M ","false"],["B ","false"],["J ","false"],["N ","false"],["D ","false"],["O ","false"],["K ","false"],["C ","false"],["F ","false"],["I ","false"],["H ","false"],["G ","false"],["L ","false"],["E ","false"],["A ","false"]],"correct":0,"scaffold":"none","question":"finishes","scenario":"axis","graph":"triangular","condition":0,"session":"foxtrot","experiment":"experiment","subject":"TAL8M","internal_node_id":"0.0-9.0-6.0","time_elapsed":1231212,"trial_index":33,"trial_type":"html","url":"../views/src/external/stimulus.html","rt":10120},{"block":"triangular_testing","helps":0,"answer":["F"],"clicked":[["answer","clicked"],["M ","false"],["B ","false"],["J ","false"],["N ","false"],["D ","false"],["O ","false"],["K ","false"],["C ","false"],["F ","false"],["I ","false"],["H ","false"],["G ","false"],["L ","false"],["E ","false"],["A ","false"]],"correct":0,"scaffold":"none","question":"during","scenario":"axis","graph":"triangular","condition":0,"session":"foxtrot","experiment":"experiment","subject":"TAL8M","internal_node_id":"0.0-9.0-7.0","time_elapsed":1242764,"trial_index":34,"trial_type":"html","url":"../views/src/external/stimulus.html","rt":10279},{"block":"triangular_testing","helps":0,"answer":["H","M","O"],"clicked":[["answer","clicked"],["M ","false"],["B ","false"],["J ","false"],["N ","false"],["D ","false"],["O ","false"],["K ","false"],["C ","false"],["F ","false"],["I ","false"],["H ","false"],["G ","false"],["L ","false"],["E ","false"],["A ","false"]],"correct":0,"scaffold":"none","question":"contain+duration","scenario":"axis","graph":"triangular","condition":0,"session":"foxtrot","experiment":"experiment","subject":"TAL8M","internal_node_id":"0.0-9.0-4.0","time_elapsed":1273422,"trial_index":35,"trial_type":"html","url":"../views/src/external/stimulus.html","rt":29408},{"condition":0,"session":"foxtrot","experiment":"experiment","subject":"TAL8M","internal_node_id":"0.0-10.0","time_elapsed":1289738,"trial_index":36,"trial_type":"single-stim","block":"scenario-draw","key_press":13,"stimulus":"img/jones.png","rt":15311},{"condition":0,"session":"foxtrot","experiment":"experiment","subject":"TAL8M","internal_node_id":"0.0-11.0","time_elapsed":1858048,"trial_index":37,"trial_type":"html","block":"instructions_drawing","url":"../views/src/external/instructions_draw.html","rt":567159},{"block":"drawingTest","clicked":[["answer","clicked"]],"answer":["A1","C1"],"correct":0,"scaffold":"none","question":"duration","scenario":"jones","graph":"none","condition":0,"session":"foxtrot","experiment":"experiment","subject":"TAL8M","internal_node_id":"0.0-12.0","time_elapsed":1950734,"trial_index":38,"trial_type":"html","url":"../views/src/external/stimulus.html","rt":91341},{"block":"drawingTest","clicked":[["answer","clicked"]],"answer":["Anne"],"correct":0,"scaffold":"none","question":"overlap","scenario":"jones","graph":"none","condition":0,"session":"foxtrot","experiment":"experiment","subject":"TAL8M","internal_node_id":"0.0-13.0","time_elapsed":2026723,"trial_index":39,"trial_type":"html","url":"../views/src/external/stimulus.html","rt":74647},{"condition":0,"session":"foxtrot","experiment":"experiment","subject":"TAL8M","internal_node_id":"0.0-14.0","time_elapsed":2034373,"trial_index":40,"trial_type":"survey-text","block":"demo-1","responses":"{\"Q0\":\"21\",\"Q1\":\"United States\"}","rt":6645},{"condition":0,"session":"foxtrot","experiment":"experiment","subject":"TAL8M","internal_node_id":"0.0-15.0","time_elapsed":2046815,"trial_index":41,"trial_type":"survey-multi-choice","block":"demo-2","responses":"{\"Q0\":\"English\",\"Q1\":\"Fourth\",\"Q2\":\"Social Sciences (incl. CogSci)\",\"Q3\":\"Female\",\"Q4\":\"the first one (linear\"}","rt":11428},{"condition":0,"session":"foxtrot","experiment":"experiment","subject":"TAL8M","internal_node_id":"0.0-16.0","time_elapsed":2051062,"trial_index":42,"trial_type":"html","block":"debrief","url":"../views/src/external/debrief.html","rt":2987}],"__v":0}
