{"_id":{"$oid":"58b4e5611ee41f0004deb8fe"},"data":[{"condition":"0","session":"LMNORM1","experiment":"default","subject":"UWP8R","internal_node_id":"0.0-0.0","time_elapsed":6528,"trial_index":0,"trial_type":"html","block":"instructions_lab","url":"../views/src/external/instructions_turk.html","rt":6432},{"condition":"0","session":"LMNORM1","experiment":"default","subject":"UWP8R","internal_node_id":"0.0-1.0","time_elapsed":64194,"trial_index":1,"trial_type":"survey-text","block":"codes","responses":"{\"Q0\":\"LMNORM1\",\"Q1\":\"0\",\"Q2\":\"A1BUBB41AO8TZ9\"}","rt":56652},{"condition":"0","session":"LMNORM1","experiment":"default","subject":"UWP8R","internal_node_id":"0.0-2.0","time_elapsed":93197,"trial_index":2,"trial_type":"single-stim","block":"scenario-one","key_press":13,"stimulus":"img/axis.png","rt":27988},{"answer":["H","O"],"block":"linear_scaffolded","helps":0,"clicked":[["answer","clicked"],["M ","false"],["B ","false"],["J ","false"],["N ","false"],["D ","false"],["O ","false"],["K ","false"],["C ","false"],["F ","false"],["I ","false"],["H ","false"],["G ","false"],["L ","false"],["E ","false"],["A ","false"]],"correct":1,"scaffold":"none","question":"start","scenario":"axis","graph":"linear","condition":"0","session":"LMNORM1","experiment":"default","subject":"UWP8R","internal_node_id":"0.0-3.0-0.0","time_elapsed":113011,"trial_index":3,"trial_type":"html","url":"../views/src/external/stimulus.html","rt":18455},{"answer":["4"],"block":"linear_scaffolded","helps":0,"clicked":[["answer","clicked"],["M ","false"],["B ","false"],["J ","false"],["N ","false"],["D ","false"],["O ","false"],["K ","false"],["C ","false"],["F ","false"],["I ","false"],["H ","false"],["G ","false"],["L ","false"],["E ","false"],["A ","false"]],"correct":1,"scaffold":"none","question":"end","scenario":"axis","graph":"linear","condition":"0","session":"LMNORM1","experiment":"default","subject":"UWP8R","internal_node_id":"0.0-3.0-1.0","time_elapsed":126432,"trial_index":4,"trial_type":"html","url":"../views/src/external/stimulus.html","rt":12156},{"answer":["A","E","G","H","I","L"],"block":"linear_scaffolded","helps":0,"clicked":[["answer","clicked"],["M ","false"],["B ","false"],["J ","false"],["N ","false"],["D ","false"],["O ","false"],["K ","false"],["C ","false"],["F ","false"],["I ","false"],["H ","false"],["G ","false"],["L ","false"],["E ","false"],["A ","false"]],"correct":0,"scaffold":"none","question":"duration","scenario":"axis","graph":"linear","condition":"0","session":"LMNORM1","experiment":"default","subject":"UWP8R","internal_node_id":"0.0-3.0-2.0","time_elapsed":161127,"trial_index":5,"trial_type":"html","url":"../views/src/external/stimulus.html","rt":33393},{"answer":["1"],"block":"linear_scaffolded","helps":0,"clicked":[["answer","clicked"],["M ","false"],["B ","false"],["J ","false"],["N ","false"],["D ","false"],["O ","false"],["K ","false"],["C ","false"],["F ","false"],["I ","false"],["H ","false"],["G ","false"],["L ","false"],["E ","false"],["A ","false"]],"correct":0,"scaffold":"none","question":"midpoint","scenario":"axis","graph":"linear","condition":"0","session":"LMNORM1","experiment":"default","subject":"UWP8R","internal_node_id":"0.0-3.0-3.0","time_elapsed":287945,"trial_index":6,"trial_type":"html","url":"../views/src/external/stimulus.html","rt":125462},{"answer":["7"],"block":"linear_scaffolded","helps":0,"clicked":[["answer","clicked"],["M ","false"],["B ","false"],["J ","false"],["N ","false"],["D ","false"],["O ","false"],["K ","false"],["C ","false"],["F ","false"],["I ","false"],["H ","false"],["G ","false"],["L ","false"],["E ","false"],["A ","false"]],"correct":1,"scaffold":"none","question":"start+overlap","scenario":"axis","graph":"linear","condition":"0","session":"LMNORM1","experiment":"default","subject":"UWP8R","internal_node_id":"0.0-3.0-4.0","time_elapsed":308666,"trial_index":7,"trial_type":"html","url":"../views/src/external/stimulus.html","rt":19221},{"answer":["B","D","J","M","N","O"],"block":"linear_testing","helps":0,"clicked":[["answer","clicked"],["M ","false"],["B ","false"],["J ","false"],["N ","false"],["D ","false"],["O ","false"],["K ","false"],["C ","false"],["F ","false"],["I ","false"],["H ","false"],["G ","false"],["L ","false"],["E ","false"],["A ","false"]],"correct":0,"scaffold":"none","question":"contain+duration","scenario":"axis","graph":"linear","condition":"0","session":"LMNORM1","experiment":"default","subject":"UWP8R","internal_node_id":"0.0-4.0-4.0","time_elapsed":341370,"trial_index":8,"trial_type":"html","url":"../views/src/external/stimulus.html","rt":31444},{"answer":["G","M","O"],"block":"linear_testing","helps":0,"clicked":[["answer","clicked"],["M ","false"],["B ","false"],["J ","false"],["N ","false"],["D ","false"],["O ","false"],["K ","false"],["C ","false"],["F ","false"],["I ","false"],["H ","false"],["G ","false"],["L ","false"],["E ","false"],["A ","false"]],"correct":0,"scaffold":"none","question":"before+overlap","scenario":"axis","graph":"linear","condition":"0","session":"LMNORM1","experiment":"default","subject":"UWP8R","internal_node_id":"0.0-4.0-1.0","time_elapsed":374619,"trial_index":9,"trial_type":"html","url":"../views/src/external/stimulus.html","rt":32003},{"answer":["B","C","J"],"block":"linear_testing","helps":0,"clicked":[["answer","clicked"],["M ","false"],["B ","false"],["J ","false"],["N ","false"],["D ","false"],["O ","false"],["K ","false"],["C ","false"],["F ","false"],["I ","false"],["H ","false"],["G ","false"],["L ","false"],["E ","false"],["A ","false"]],"correct":0,"scaffold":"none","question":"overlap+overlap","scenario":"axis","graph":"linear","condition":"0","session":"LMNORM1","experiment":"default","subject":"UWP8R","internal_node_id":"0.0-4.0-2.0","time_elapsed":401644,"trial_index":10,"trial_type":"html","url":"../views/src/external/stimulus.html","rt":25764},{"answer":["M"],"block":"linear_testing","helps":0,"clicked":[["answer","clicked"],["M ","false"],["B ","false"],["J ","false"],["N ","false"],["D ","false"],["O ","false"],["K ","false"],["C ","false"],["F ","false"],["I ","false"],["H ","false"],["G ","false"],["L ","false"],["E ","false"],["A ","false"]],"correct":0,"scaffold":"none","question":"during+overlap","scenario":"axis","graph":"linear","condition":"0","session":"LMNORM1","experiment":"default","subject":"UWP8R","internal_node_id":"0.0-4.0-3.0","time_elapsed":461531,"trial_index":11,"trial_type":"html","url":"../views/src/external/stimulus.html","rt":58633},{"answer":["G","O"],"block":"linear_testing","helps":0,"clicked":[["answer","clicked"],["M ","false"],["B ","false"],["J ","false"],["N ","false"],["D ","false"],["O ","false"],["K ","false"],["C ","false"],["F ","false"],["I ","false"],["H ","false"],["G ","false"],["L ","false"],["E ","false"],["A ","false"]],"correct":1,"scaffold":"none","question":"finishes","scenario":"axis","graph":"linear","condition":"0","session":"LMNORM1","experiment":"default","subject":"UWP8R","internal_node_id":"0.0-4.0-6.0","time_elapsed":477288,"trial_index":12,"trial_type":"html","url":"../views/src/external/stimulus.html","rt":14498},{"answer":["M","O"],"block":"linear_testing","helps":0,"clicked":[["answer","clicked"],["M ","false"],["B ","false"],["J ","false"],["N ","false"],["D ","false"],["O ","false"],["K ","false"],["C ","false"],["F ","false"],["I ","false"],["H ","false"],["G ","false"],["L ","false"],["E ","false"],["A ","false"]],"correct":0,"scaffold":"none","question":"during","scenario":"axis","graph":"linear","condition":"0","session":"LMNORM1","experiment":"default","subject":"UWP8R","internal_node_id":"0.0-4.0-7.0","time_elapsed":505757,"trial_index":13,"trial_type":"html","url":"../views/src/external/stimulus.html","rt":27220},{"answer":["F"],"block":"linear_testing","helps":0,"clicked":[["answer","clicked"],["M ","false"],["B ","false"],["J ","false"],["N ","false"],["D ","false"],["O ","false"],["K ","false"],["C ","false"],["F ","false"],["I ","false"],["H ","false"],["G ","false"],["L ","false"],["E ","false"],["A ","false"]],"correct":0,"scaffold":"none","question":"meets","scenario":"axis","graph":"linear","condition":"0","session":"LMNORM1","experiment":"default","subject":"UWP8R","internal_node_id":"0.0-4.0-8.0","time_elapsed":546327,"trial_index":14,"trial_type":"html","url":"../views/src/external/stimulus.html","rt":39319},{"answer":["G"],"block":"linear_testing","helps":0,"clicked":[["answer","clicked"],["M ","false"],["B ","false"],["J ","false"],["N ","false"],["D ","false"],["O ","false"],["K ","false"],["C ","false"],["F ","false"],["I ","false"],["H ","false"],["G ","false"],["L ","false"],["E ","false"],["A ","false"]],"correct":1,"scaffold":"none","question":"starts+finishes","scenario":"axis","graph":"linear","condition":"0","session":"LMNORM1","experiment":"default","subject":"UWP8R","internal_node_id":"0.0-4.0-9.0","time_elapsed":567453,"trial_index":15,"trial_type":"html","url":"../views/src/external/stimulus.html","rt":19859},{"answer":["9"],"block":"linear_testing","helps":0,"clicked":[["answer","clicked"],["M ","false"],["B ","false"],["J ","false"],["N ","false"],["D ","false"],["O ","false"],["K ","false"],["C ","false"],["F ","false"],["I ","false"],["H ","false"],["G ","false"],["L ","false"],["E ","false"],["A ","false"]],"correct":1,"scaffold":"none","question":"start+duration","scenario":"axis","graph":"linear","condition":"0","session":"LMNORM1","experiment":"default","subject":"UWP8R","internal_node_id":"0.0-4.0-0.0","time_elapsed":595943,"trial_index":16,"trial_type":"html","url":"../views/src/external/stimulus.html","rt":27232},{"answer":["5"],"block":"linear_testing","helps":0,"clicked":[["answer","clicked"],["M ","false"],["B ","false"],["J ","false"],["N ","false"],["D ","false"],["O ","false"],["K ","false"],["C ","false"],["F ","false"],["I ","false"],["H ","false"],["G ","false"],["L ","false"],["E ","false"],["A ","false"]],"correct":0,"scaffold":"none","question":"starts","scenario":"axis","graph":"linear","condition":"0","session":"LMNORM1","experiment":"default","subject":"UWP8R","internal_node_id":"0.0-4.0-5.0","time_elapsed":627142,"trial_index":17,"trial_type":"html","url":"../views/src/external/stimulus.html","rt":29949},{"condition":"0","session":"LMNORM1","experiment":"default","subject":"UWP8R","internal_node_id":"0.0-5.0","time_elapsed":641920,"trial_index":18,"trial_type":"survey-text","block":"demo-1","responses":"{\"Q0\":\"25\",\"Q1\":\"usa\",\"Q2\":\"homemaker\"}","rt":13773},{"condition":"0","session":"LMNORM1","experiment":"default","subject":"UWP8R","internal_node_id":"0.0-6.0","time_elapsed":725909,"trial_index":19,"trial_type":"survey-multi-choice","block":"demo-2","responses":"{\"Q0\":\"English\",\"Q1\":\"Second\",\"Q2\":\"Humanities\",\"Q3\":\"Female\",\"Q4\":\"the first one (linear\"}","rt":82968}],"__v":0}
{"_id":{"$oid":"58b4e5871ee41f0004deb8ff"},"data":[{"condition":"0","session":"LMNORM1","experiment":"default","subject":"9GD96","internal_node_id":"0.0-0.0","time_elapsed":15290,"trial_index":0,"trial_type":"html","block":"instructions_lab","url":"../views/src/external/instructions_turk.html","rt":14758},{"condition":"0","session":"LMNORM1","experiment":"default","subject":"9GD96","internal_node_id":"0.0-1.0","time_elapsed":64561,"trial_index":1,"trial_type":"survey-text","block":"codes","responses":"{\"Q0\":\"LMNORM1\",\"Q1\":\"0\",\"Q2\":\"A2N8STDOF0DBF7\"}","rt":48248},{"condition":"0","session":"LMNORM1","experiment":"default","subject":"9GD96","internal_node_id":"0.0-2.0","time_elapsed":85220,"trial_index":2,"trial_type":"single-stim","block":"scenario-one","key_press":13,"stimulus":"img/axis.png","rt":19647},{"answer":["H","O"],"block":"linear_scaffolded","helps":0,"clicked":[["answer","clicked"],["M ","false"],["B ","false"],["J ","false"],["N ","false"],["D ","false"],["O ","false"],["K ","false"],["C ","false"],["F ","false"],["I ","false"],["H ","false"],["G ","false"],["L ","false"],["E ","false"],["A ","false"]],"correct":1,"scaffold":"none","question":"start","scenario":"axis","graph":"linear","condition":"0","session":"LMNORM1","experiment":"default","subject":"9GD96","internal_node_id":"0.0-3.0-0.0","time_elapsed":172881,"trial_index":3,"trial_type":"html","url":"../views/src/external/stimulus.html","rt":83922},{"answer":["4"],"block":"linear_scaffolded","helps":0,"clicked":[["answer","clicked"],["M ","false"],["B ","false"],["J ","false"],["N ","false"],["D ","false"],["O ","false"],["K ","false"],["C ","false"],["F ","false"],["I ","false"],["H ","false"],["G ","false"],["L ","false"],["E ","false"],["A ","false"]],"correct":1,"scaffold":"none","question":"end","scenario":"axis","graph":"linear","condition":"0","session":"LMNORM1","experiment":"default","subject":"9GD96","internal_node_id":"0.0-3.0-1.0","time_elapsed":186157,"trial_index":4,"trial_type":"html","url":"../views/src/external/stimulus.html","rt":10440},{"answer":["A","E","G","H","I","L"],"block":"linear_scaffolded","helps":0,"clicked":[["answer","clicked"],["M ","false"],["B ","false"],["J ","false"],["N ","false"],["D ","false"],["O ","false"],["K ","false"],["C ","false"],["F ","false"],["I ","false"],["H ","false"],["G ","false"],["L ","false"],["E ","false"],["A ","false"]],"correct":0,"scaffold":"none","question":"duration","scenario":"axis","graph":"linear","condition":"0","session":"LMNORM1","experiment":"default","subject":"9GD96","internal_node_id":"0.0-3.0-2.0","time_elapsed":220362,"trial_index":5,"trial_type":"html","url":"../views/src/external/stimulus.html","rt":32359},{"answer":["8"],"block":"linear_scaffolded","helps":0,"clicked":[["answer","clicked"],["M ","false"],["B ","false"],["J ","false"],["N ","false"],["D ","false"],["O ","false"],["K ","false"],["C ","false"],["F ","false"],["I ","false"],["H ","false"],["G ","false"],["L ","false"],["E ","false"],["A ","false"]],"correct":1,"scaffold":"none","question":"midpoint","scenario":"axis","graph":"linear","condition":"0","session":"LMNORM1","experiment":"default","subject":"9GD96","internal_node_id":"0.0-3.0-3.0","time_elapsed":250378,"trial_index":6,"trial_type":"html","url":"../views/src/external/stimulus.html","rt":27600},{"answer":["7"],"block":"linear_scaffolded","helps":0,"clicked":[["answer","clicked"],["M ","false"],["B ","false"],["J ","false"],["N ","false"],["D ","false"],["O ","false"],["K ","false"],["C ","false"],["F ","false"],["I ","false"],["H ","false"],["G ","false"],["L ","false"],["E ","false"],["A ","false"]],"correct":1,"scaffold":"none","question":"start+overlap","scenario":"axis","graph":"linear","condition":"0","session":"LMNORM1","experiment":"default","subject":"9GD96","internal_node_id":"0.0-3.0-4.0","time_elapsed":287032,"trial_index":7,"trial_type":"html","url":"../views/src/external/stimulus.html","rt":34744},{"answer":["9"],"block":"linear_testing","helps":0,"clicked":[["answer","clicked"],["M ","false"],["B ","false"],["J ","false"],["N ","false"],["D ","false"],["O ","false"],["K ","false"],["C ","false"],["F ","false"],["I ","false"],["H ","false"],["G ","false"],["L ","false"],["E ","false"],["A ","false"]],"correct":1,"scaffold":"none","question":"start+duration","scenario":"axis","graph":"linear","condition":"0","session":"LMNORM1","experiment":"default","subject":"9GD96","internal_node_id":"0.0-4.0-0.0","time_elapsed":313083,"trial_index":8,"trial_type":"html","url":"../views/src/external/stimulus.html","rt":24018},{"answer":["D","M","N","O"],"block":"linear_testing","helps":0,"clicked":[["answer","clicked"],["M ","false"],["B ","false"],["J ","false"],["N ","false"],["D ","false"],["O ","false"],["K ","false"],["C ","false"],["F ","false"],["I ","false"],["H ","false"],["G ","false"],["L ","false"],["E ","false"],["A ","false"]],"correct":1,"scaffold":"none","question":"contain+duration","scenario":"axis","graph":"linear","condition":"0","session":"LMNORM1","experiment":"default","subject":"9GD96","internal_node_id":"0.0-4.0-4.0","time_elapsed":354776,"trial_index":9,"trial_type":"html","url":"../views/src/external/stimulus.html","rt":39517},{"answer":["G"],"block":"linear_testing","helps":0,"clicked":[["answer","clicked"],["M ","false"],["B ","false"],["J ","false"],["N ","false"],["D ","false"],["O ","false"],["K ","false"],["C ","false"],["F ","false"],["I ","false"],["H ","false"],["G ","false"],["L ","false"],["E ","false"],["A ","false"]],"correct":1,"scaffold":"none","question":"starts+finishes","scenario":"axis","graph":"linear","condition":"0","session":"LMNORM1","experiment":"default","subject":"9GD96","internal_node_id":"0.0-4.0-9.0","time_elapsed":376492,"trial_index":10,"trial_type":"html","url":"../views/src/external/stimulus.html","rt":15012},{"answer":["6"],"block":"linear_testing","helps":0,"clicked":[["answer","clicked"],["M ","false"],["B ","false"],["J ","false"],["N ","false"],["D ","false"],["O ","false"],["K ","false"],["C ","false"],["F ","false"],["I ","false"],["H ","false"],["G ","false"],["L ","false"],["E ","false"],["A ","false"]],"correct":1,"scaffold":"none","question":"starts","scenario":"axis","graph":"linear","condition":"0","session":"LMNORM1","experiment":"default","subject":"9GD96","internal_node_id":"0.0-4.0-5.0","time_elapsed":394763,"trial_index":11,"trial_type":"html","url":"../views/src/external/stimulus.html","rt":16761},{"answer":["A","B","C","E","J"],"block":"linear_testing","helps":0,"clicked":[["answer","clicked"],["M ","false"],["B ","false"],["J ","false"],["N ","false"],["D ","false"],["O ","false"],["K ","false"],["C ","false"],["F ","false"],["I ","false"],["H ","false"],["G ","false"],["L ","false"],["E ","false"],["A ","false"]],"correct":1,"scaffold":"none","question":"overlap+overlap","scenario":"axis","graph":"linear","condition":"0","session":"LMNORM1","experiment":"default","subject":"9GD96","internal_node_id":"0.0-4.0-2.0","time_elapsed":441937,"trial_index":12,"trial_type":"html","url":"../views/src/external/stimulus.html","rt":45019},{"answer":["G","O"],"block":"linear_testing","helps":0,"clicked":[["answer","clicked"],["M ","false"],["B ","false"],["J ","false"],["N ","false"],["D ","false"],["O ","false"],["K ","false"],["C ","false"],["F ","false"],["I ","false"],["H ","false"],["G ","false"],["L ","false"],["E ","false"],["A ","false"]],"correct":1,"scaffold":"none","question":"finishes","scenario":"axis","graph":"linear","condition":"0","session":"LMNORM1","experiment":"default","subject":"9GD96","internal_node_id":"0.0-4.0-6.0","time_elapsed":455883,"trial_index":13,"trial_type":"html","url":"../views/src/external/stimulus.html","rt":11942},{"answer":["F","M","O"],"block":"linear_testing","helps":0,"clicked":[["answer","clicked"],["M ","false"],["B ","false"],["J ","false"],["N ","false"],["D ","false"],["O ","false"],["K ","false"],["C ","false"],["F ","false"],["I ","false"],["H ","false"],["G ","false"],["L ","false"],["E ","false"],["A ","false"]],"correct":1,"scaffold":"none","question":"during","scenario":"axis","graph":"linear","condition":"0","session":"LMNORM1","experiment":"default","subject":"9GD96","internal_node_id":"0.0-4.0-7.0","time_elapsed":490606,"trial_index":14,"trial_type":"html","url":"../views/src/external/stimulus.html","rt":31783},{"answer":["F","G","M","O"],"block":"linear_testing","helps":0,"clicked":[["answer","clicked"],["M ","false"],["B ","false"],["J ","false"],["N ","false"],["D ","false"],["O ","false"],["K ","false"],["C ","false"],["F ","false"],["I ","false"],["H ","false"],["G ","false"],["L ","false"],["E ","false"],["A ","false"]],"correct":1,"scaffold":"none","question":"before+overlap","scenario":"axis","graph":"linear","condition":"0","session":"LMNORM1","experiment":"default","subject":"9GD96","internal_node_id":"0.0-4.0-1.0","time_elapsed":530298,"trial_index":15,"trial_type":"html","url":"../views/src/external/stimulus.html","rt":37139},{"answer":["G"],"block":"linear_testing","helps":0,"clicked":[["answer","clicked"],["M ","false"],["B ","false"],["J ","false"],["N ","false"],["D ","false"],["O ","false"],["K ","false"],["C ","false"],["F ","false"],["I ","false"],["H ","false"],["G ","false"],["L ","false"],["E ","false"],["A ","false"]],"correct":1,"scaffold":"none","question":"meets","scenario":"axis","graph":"linear","condition":"0","session":"LMNORM1","experiment":"default","subject":"9GD96","internal_node_id":"0.0-4.0-8.0","time_elapsed":580831,"trial_index":16,"trial_type":"html","url":"../views/src/external/stimulus.html","rt":46128},{"answer":["A"],"block":"linear_testing","helps":0,"clicked":[["answer","clicked"],["M ","false"],["B ","false"],["J ","false"],["N ","false"],["D ","false"],["O ","false"],["K ","false"],["C ","false"],["F ","false"],["I ","false"],["H ","false"],["G ","false"],["L ","false"],["E ","false"],["A ","false"]],"correct":1,"scaffold":"none","question":"during+overlap","scenario":"axis","graph":"linear","condition":"0","session":"LMNORM1","experiment":"default","subject":"9GD96","internal_node_id":"0.0-4.0-3.0","time_elapsed":645923,"trial_index":17,"trial_type":"html","url":"../views/src/external/stimulus.html","rt":63077},{"condition":"0","session":"LMNORM1","experiment":"default","subject":"9GD96","internal_node_id":"0.0-5.0","time_elapsed":657574,"trial_index":18,"trial_type":"survey-text","block":"demo-1","responses":"{\"Q0\":\"38\",\"Q1\":\"USA\",\"Q2\":\"Finance\"}","rt":10632},{"condition":"0","session":"LMNORM1","experiment":"default","subject":"9GD96","internal_node_id":"0.0-6.0","time_elapsed":707208,"trial_index":19,"trial_type":"survey-multi-choice","block":"demo-2","responses":"{\"Q0\":\"Other\",\"Q1\":\"Other\",\"Q2\":\"Social Sciences (incl. CogSci)\",\"Q3\":\"Female\",\"Q4\":\"the first one (linear\"}","rt":48588}],"__v":0}
{"_id":{"$oid":"58b4e7c81ee41f0004deb900"},"data":[{"condition":"0","session":"LMNORM1","experiment":"default","subject":"ODX07","internal_node_id":"0.0-0.0","time_elapsed":12489,"trial_index":0,"trial_type":"html","block":"instructions_lab","url":"../views/src/external/instructions_turk.html","rt":12340},{"condition":"0","session":"LMNORM1","experiment":"default","subject":"ODX07","internal_node_id":"0.0-1.0","time_elapsed":60714,"trial_index":1,"trial_type":"survey-text","block":"codes","responses":"{\"Q0\":\"LMNORM1\",\"Q1\":\"0\",\"Q2\":\"A1J0GU26323WVA\"}","rt":47207},{"condition":"0","session":"LMNORM1","experiment":"default","subject":"ODX07","internal_node_id":"0.0-2.0","time_elapsed":63741,"trial_index":2,"trial_type":"single-stim","block":"scenario-one","key_press":13,"stimulus":"img/longmire.png","rt":2020},{"answer":["C","D","L"],"block":"linear_scaffolded","helps":0,"clicked":[["answer","clicked"],["A ","false"],["M ","false"],["D ","false"],["N ","false"],["B ","false"],["F ","false"],["H ","false"],["G ","false"],["O ","false"],["C ","false"],["J ","false"],["I ","false"],["E ","false"],["L ","false"],["K ","false"]],"correct":1,"scaffold":"none","question":"start","scenario":"longmire","graph":"linear","condition":"0","session":"LMNORM1","experiment":"default","subject":"ODX07","internal_node_id":"0.0-3.0-0.0","time_elapsed":87732,"trial_index":3,"trial_type":"html","url":"../views/src/external/stimulus.html","rt":22339},{"answer":["E","G"],"block":"linear_scaffolded","helps":0,"clicked":[["answer","clicked"],["A ","false"],["M ","false"],["D ","false"],["N ","false"],["B ","false"],["F ","false"],["H ","false"],["G ","false"],["O ","false"],["C ","false"],["J ","false"],["I ","false"],["E ","false"],["L ","false"],["K ","false"]],"correct":0,"scaffold":"none","question":"end","scenario":"longmire","graph":"linear","condition":"0","session":"LMNORM1","experiment":"default","subject":"ODX07","internal_node_id":"0.0-3.0-1.0","time_elapsed":103096,"trial_index":4,"trial_type":"html","url":"../views/src/external/stimulus.html","rt":13802},{"answer":["G","O"],"block":"linear_scaffolded","helps":0,"clicked":[["answer","clicked"],["A ","false"],["M ","false"],["D ","false"],["N ","false"],["B ","false"],["F ","false"],["H ","false"],["G ","false"],["O ","false"],["C ","false"],["J ","false"],["I ","false"],["E ","false"],["L ","false"],["K ","false"]],"correct":1,"scaffold":"none","question":"duration","scenario":"longmire","graph":"linear","condition":"0","session":"LMNORM1","experiment":"default","subject":"ODX07","internal_node_id":"0.0-3.0-2.0","time_elapsed":129904,"trial_index":5,"trial_type":"html","url":"../views/src/external/stimulus.html","rt":25246},{"answer":["1"],"block":"linear_scaffolded","helps":0,"clicked":[["answer","clicked"],["A ","false"],["M ","false"],["D ","false"],["N ","false"],["B ","false"],["F ","false"],["H ","false"],["G ","false"],["O ","false"],["C ","false"],["J ","false"],["I ","false"],["E ","false"],["L ","false"],["K ","false"]],"correct":1,"scaffold":"none","question":"midpoint","scenario":"longmire","graph":"linear","condition":"0","session":"LMNORM1","experiment":"default","subject":"ODX07","internal_node_id":"0.0-3.0-3.0","time_elapsed":147915,"trial_index":6,"trial_type":"html","url":"../views/src/external/stimulus.html","rt":16392},{"answer":["A"],"block":"linear_scaffolded","helps":0,"clicked":[["answer","clicked"],["A ","false"],["M ","false"],["D ","false"],["N ","false"],["B ","false"],["F ","false"],["H ","false"],["G ","false"],["O ","false"],["C ","false"],["J ","false"],["I ","false"],["E ","false"],["L ","false"],["K ","false"]],"correct":1,"scaffold":"none","question":"start+overlap","scenario":"longmire","graph":"linear","condition":"0","session":"LMNORM1","experiment":"default","subject":"ODX07","internal_node_id":"0.0-3.0-4.0","time_elapsed":160207,"trial_index":7,"trial_type":"html","url":"../views/src/external/stimulus.html","rt":10772},{"answer":["K","L"],"block":"linear_testing","helps":0,"clicked":[["answer","clicked"],["A ","false"],["M ","false"],["D ","false"],["N ","false"],["B ","false"],["F ","false"],["H ","false"],["G ","false"],["O ","false"],["C ","false"],["J ","false"],["I ","false"],["E ","false"],["L ","false"],["K ","false"]],"correct":1,"scaffold":"none","question":"during+overlap","scenario":"longmire","graph":"linear","condition":"0","session":"LMNORM1","experiment":"default","subject":"ODX07","internal_node_id":"0.0-4.0-3.0","time_elapsed":206578,"trial_index":8,"trial_type":"html","url":"../views/src/external/stimulus.html","rt":44830},{"answer":["A","C","D","F","I","J"],"block":"linear_testing","helps":0,"clicked":[["answer","clicked"],["A ","false"],["M ","false"],["D ","false"],["N ","false"],["B ","false"],["F ","false"],["H ","false"],["G ","false"],["O ","false"],["C ","false"],["J ","false"],["I ","false"],["E ","false"],["L ","false"],["K ","false"]],"correct":0,"scaffold":"none","question":"before+overlap","scenario":"longmire","graph":"linear","condition":"0","session":"LMNORM1","experiment":"default","subject":"ODX07","internal_node_id":"0.0-4.0-1.0","time_elapsed":260779,"trial_index":9,"trial_type":"html","url":"../views/src/external/stimulus.html","rt":52795},{"answer":["A","B","D"],"block":"linear_testing","helps":0,"clicked":[["answer","clicked"],["A ","false"],["M ","false"],["D ","false"],["N ","false"],["B ","false"],["F ","false"],["H ","false"],["G ","false"],["O ","false"],["C ","false"],["J ","false"],["I ","false"],["E ","false"],["L ","false"],["K ","false"]],"correct":0,"scaffold":"none","question":"start+duration","scenario":"longmire","graph":"linear","condition":"0","session":"LMNORM1","experiment":"default","subject":"ODX07","internal_node_id":"0.0-4.0-0.0","time_elapsed":291516,"trial_index":10,"trial_type":"html","url":"../views/src/external/stimulus.html","rt":29222},{"answer":["A","H","M","N","O"],"block":"linear_testing","helps":0,"clicked":[["answer","clicked"],["A ","false"],["M ","false"],["D ","false"],["N ","false"],["B ","false"],["F ","false"],["H ","false"],["G ","false"],["O ","false"],["C ","false"],["J ","false"],["I ","false"],["E ","false"],["L ","false"],["K ","false"]],"correct":0,"scaffold":"none","question":"overlap+overlap","scenario":"longmire","graph":"linear","condition":"0","session":"LMNORM1","experiment":"default","subject":"ODX07","internal_node_id":"0.0-4.0-2.0","time_elapsed":314309,"trial_index":11,"trial_type":"html","url":"../views/src/external/stimulus.html","rt":21224},{"answer":["4"],"block":"linear_testing","helps":0,"clicked":[["answer","clicked"],["A ","false"],["M ","false"],["D ","false"],["N ","false"],["B ","false"],["F ","false"],["H ","false"],["G ","false"],["O ","false"],["C ","false"],["J ","false"],["I ","false"],["E ","false"],["L ","false"],["K ","false"]],"correct":0,"scaffold":"none","question":"finishes","scenario":"longmire","graph":"linear","condition":"0","session":"LMNORM1","experiment":"default","subject":"ODX07","internal_node_id":"0.0-4.0-6.0","time_elapsed":359864,"trial_index":12,"trial_type":"html","url":"../views/src/external/stimulus.html","rt":43951},{"answer":["C"],"block":"linear_testing","helps":0,"clicked":[["answer","clicked"],["A ","false"],["M ","false"],["D ","false"],["N ","false"],["B ","false"],["F ","false"],["H ","false"],["G ","false"],["O ","false"],["C ","false"],["J ","false"],["I ","false"],["E ","false"],["L ","false"],["K ","false"]],"correct":1,"scaffold":"none","question":"starts+finishes","scenario":"longmire","graph":"linear","condition":"0","session":"LMNORM1","experiment":"default","subject":"ODX07","internal_node_id":"0.0-4.0-9.0","time_elapsed":377746,"trial_index":13,"trial_type":"html","url":"../views/src/external/stimulus.html","rt":16316},{"answer":["C"],"block":"linear_testing","helps":0,"clicked":[["answer","clicked"],["A ","false"],["M ","false"],["D ","false"],["N ","false"],["B ","false"],["F ","false"],["H ","false"],["G ","false"],["O ","false"],["C ","false"],["J ","false"],["I ","false"],["E ","false"],["L ","false"],["K ","false"]],"correct":0,"scaffold":"none","question":"contain+duration","scenario":"longmire","graph":"linear","condition":"0","session":"LMNORM1","experiment":"default","subject":"ODX07","internal_node_id":"0.0-4.0-4.0","time_elapsed":420640,"trial_index":14,"trial_type":"html","url":"../views/src/external/stimulus.html","rt":41286},{"answer":["C","F"],"block":"linear_testing","helps":0,"clicked":[["answer","clicked"],["A ","false"],["M ","false"],["D ","false"],["N ","false"],["B ","false"],["F ","false"],["H ","false"],["G ","false"],["O ","false"],["C ","false"],["J ","false"],["I ","false"],["E ","false"],["L ","false"],["K ","false"]],"correct":0,"scaffold":"none","question":"during","scenario":"longmire","graph":"linear","condition":"0","session":"LMNORM1","experiment":"default","subject":"ODX07","internal_node_id":"0.0-4.0-7.0","time_elapsed":447930,"trial_index":15,"trial_type":"html","url":"../views/src/external/stimulus.html","rt":25920},{"answer":["8"],"block":"linear_testing","helps":0,"clicked":[["answer","clicked"],["A ","false"],["M ","false"],["D ","false"],["N ","false"],["B ","false"],["F ","false"],["H ","false"],["G ","false"],["O ","false"],["C ","false"],["J ","false"],["I ","false"],["E ","false"],["L ","false"],["K ","false"]],"correct":0,"scaffold":"none","question":"starts","scenario":"longmire","graph":"linear","condition":"0","session":"LMNORM1","experiment":"default","subject":"ODX07","internal_node_id":"0.0-4.0-5.0","time_elapsed":469191,"trial_index":16,"trial_type":"html","url":"../views/src/external/stimulus.html","rt":19689},{"answer":["O"],"block":"linear_testing","helps":0,"clicked":[["answer","clicked"],["A ","false"],["M ","false"],["D ","false"],["N ","false"],["B ","false"],["F ","false"],["H ","false"],["G ","false"],["O ","false"],["C ","false"],["J ","false"],["I ","false"],["E ","false"],["L ","false"],["K ","false"]],"correct":1,"scaffold":"none","question":"meets","scenario":"longmire","graph":"linear","condition":"0","session":"LMNORM1","experiment":"default","subject":"ODX07","internal_node_id":"0.0-4.0-8.0","time_elapsed":485352,"trial_index":17,"trial_type":"html","url":"../views/src/external/stimulus.html","rt":14588},{"condition":"0","session":"LMNORM1","experiment":"default","subject":"ODX07","internal_node_id":"0.0-5.0","time_elapsed":504360,"trial_index":18,"trial_type":"survey-text","block":"demo-1","responses":"{\"Q0\":\"41\",\"Q1\":\"usa\",\"Q2\":\"Director of HR\"}","rt":18000},{"condition":"0","session":"LMNORM1","experiment":"default","subject":"ODX07","internal_node_id":"0.0-6.0","time_elapsed":535491,"trial_index":19,"trial_type":"survey-multi-choice","block":"demo-2","responses":"{\"Q0\":\"Other\",\"Q1\":\"Graduate\",\"Q2\":\"Math or Computer Sciences\",\"Q3\":\"Female\",\"Q4\":\"the first one (linear\"}","rt":30106}],"__v":0}
{"_id":{"$oid":"58b4e8751ee41f0004deb901"},"data":[{"condition":"0","session":"LMNORM1","experiment":"default","subject":"6UQBO","internal_node_id":"0.0-0.0","time_elapsed":12128,"trial_index":0,"trial_type":"html","block":"instructions_lab","url":"../views/src/external/instructions_turk.html","rt":12039},{"condition":"0","session":"LMNORM1","experiment":"default","subject":"6UQBO","internal_node_id":"0.0-1.0","time_elapsed":69092,"trial_index":1,"trial_type":"survey-text","block":"codes","responses":"{\"Q0\":\"LMNORM1\",\"Q1\":\"0\",\"Q2\":\"A11FRLH5KWRLBV\"}","rt":55949},{"condition":"0","session":"LMNORM1","experiment":"default","subject":"6UQBO","internal_node_id":"0.0-2.0","time_elapsed":86962,"trial_index":2,"trial_type":"single-stim","block":"scenario-one","key_press":13,"stimulus":"img/axis.png","rt":16863},{"answer":["H","O"],"block":"linear_scaffolded","helps":0,"clicked":[["answer","clicked"],["M ","false"],["B ","false"],["J ","false"],["N ","false"],["D ","false"],["O ","false"],["K ","false"],["C ","false"],["F ","false"],["I ","false"],["H ","false"],["G ","false"],["L ","false"],["E ","false"],["A ","false"]],"correct":1,"scaffold":"none","question":"start","scenario":"axis","graph":"linear","condition":"0","session":"LMNORM1","experiment":"default","subject":"6UQBO","internal_node_id":"0.0-3.0-0.0","time_elapsed":111003,"trial_index":3,"trial_type":"html","url":"../views/src/external/stimulus.html","rt":22657},{"answer":["4"],"block":"linear_scaffolded","helps":0,"clicked":[["answer","clicked"],["M ","false"],["B ","false"],["J ","false"],["N ","false"],["D ","false"],["O ","false"],["K ","false"],["C ","false"],["F ","false"],["I ","false"],["H ","false"],["G ","false"],["L ","false"],["E ","false"],["A ","false"]],"correct":1,"scaffold":"none","question":"end","scenario":"axis","graph":"linear","condition":"0","session":"LMNORM1","experiment":"default","subject":"6UQBO","internal_node_id":"0.0-3.0-1.0","time_elapsed":125620,"trial_index":4,"trial_type":"html","url":"../views/src/external/stimulus.html","rt":13325},{"answer":["A","G","H","I","L"],"block":"linear_scaffolded","helps":0,"clicked":[["answer","clicked"],["M ","false"],["B ","false"],["J ","false"],["N ","false"],["D ","false"],["O ","false"],["K ","false"],["C ","false"],["F ","false"],["I ","false"],["H ","false"],["G ","false"],["L ","false"],["E ","false"],["A ","false"]],"correct":0,"scaffold":"none","question":"duration","scenario":"axis","graph":"linear","condition":"0","session":"LMNORM1","experiment":"default","subject":"6UQBO","internal_node_id":"0.0-3.0-2.0","time_elapsed":156568,"trial_index":5,"trial_type":"html","url":"../views/src/external/stimulus.html","rt":29657},{"answer":["12","1"],"block":"linear_scaffolded","helps":0,"clicked":[["answer","clicked"],["M ","false"],["B ","false"],["J ","false"],["N ","false"],["D ","false"],["O ","false"],["K ","false"],["C ","false"],["F ","false"],["I ","false"],["H ","false"],["G ","false"],["L ","false"],["E ","false"],["A ","false"]],"correct":0,"scaffold":"none","question":"midpoint","scenario":"axis","graph":"linear","condition":"0","session":"LMNORM1","experiment":"default","subject":"6UQBO","internal_node_id":"0.0-3.0-3.0","time_elapsed":194888,"trial_index":6,"trial_type":"html","url":"../views/src/external/stimulus.html","rt":37021},{"answer":["1"],"block":"linear_scaffolded","helps":0,"clicked":[["answer","clicked"],["M ","false"],["B ","false"],["J ","false"],["N ","false"],["D ","false"],["O ","false"],["K ","false"],["C ","false"],["F ","false"],["I ","false"],["H ","false"],["G ","false"],["L ","false"],["E ","false"],["A ","false"]],"correct":0,"scaffold":"none","question":"start+overlap","scenario":"axis","graph":"linear","condition":"0","session":"LMNORM1","experiment":"default","subject":"6UQBO","internal_node_id":"0.0-3.0-4.0","time_elapsed":216869,"trial_index":7,"trial_type":"html","url":"../views/src/external/stimulus.html","rt":20693},{"answer":["A"],"block":"linear_testing","helps":0,"clicked":[["answer","clicked"],["M ","false"],["B ","false"],["J ","false"],["N ","false"],["D ","false"],["O ","false"],["K ","false"],["C ","false"],["F ","false"],["I ","false"],["H ","false"],["G ","false"],["L ","false"],["E ","false"],["A ","false"]],"correct":1,"scaffold":"none","question":"during+overlap","scenario":"axis","graph":"linear","condition":"0","session":"LMNORM1","experiment":"default","subject":"6UQBO","internal_node_id":"0.0-4.0-3.0","time_elapsed":240232,"trial_index":8,"trial_type":"html","url":"../views/src/external/stimulus.html","rt":22085},{"answer":["1","10"],"block":"linear_testing","helps":0,"clicked":[["answer","clicked"],["M ","false"],["B ","false"],["J ","false"],["N ","false"],["D ","false"],["O ","false"],["K ","false"],["C ","false"],["F ","false"],["I ","false"],["H ","false"],["G ","false"],["L ","false"],["E ","false"],["A ","false"]],"correct":0,"scaffold":"none","question":"starts","scenario":"axis","graph":"linear","condition":"0","session":"LMNORM1","experiment":"default","subject":"6UQBO","internal_node_id":"0.0-4.0-5.0","time_elapsed":281104,"trial_index":9,"trial_type":"html","url":"../views/src/external/stimulus.html","rt":39570},{"answer":["G"],"block":"linear_testing","helps":0,"clicked":[["answer","clicked"],["M ","false"],["B ","false"],["J ","false"],["N ","false"],["D ","false"],["O ","false"],["K ","false"],["C ","false"],["F ","false"],["I ","false"],["H ","false"],["G ","false"],["L ","false"],["E ","false"],["A ","false"]],"correct":1,"scaffold":"none","question":"starts+finishes","scenario":"axis","graph":"linear","condition":"0","session":"LMNORM1","experiment":"default","subject":"6UQBO","internal_node_id":"0.0-4.0-9.0","time_elapsed":302560,"trial_index":10,"trial_type":"html","url":"../views/src/external/stimulus.html","rt":20170},{"answer":["9"],"block":"linear_testing","helps":0,"clicked":[["answer","clicked"],["M ","false"],["B ","false"],["J ","false"],["N ","false"],["D ","false"],["O ","false"],["K ","false"],["C ","false"],["F ","false"],["I ","false"],["H ","false"],["G ","false"],["L ","false"],["E ","false"],["A ","false"]],"correct":1,"scaffold":"none","question":"start+duration","scenario":"axis","graph":"linear","condition":"0","session":"LMNORM1","experiment":"default","subject":"6UQBO","internal_node_id":"0.0-4.0-0.0","time_elapsed":334032,"trial_index":11,"trial_type":"html","url":"../views/src/external/stimulus.html","rt":30179},{"answer":["M"],"block":"linear_testing","helps":0,"clicked":[["answer","clicked"],["M ","false"],["B ","false"],["J ","false"],["N ","false"],["D ","false"],["O ","false"],["K ","false"],["C ","false"],["F ","false"],["I ","false"],["H ","false"],["G ","false"],["L ","false"],["E ","false"],["A ","false"]],"correct":0,"scaffold":"none","question":"contain+duration","scenario":"axis","graph":"linear","condition":"0","session":"LMNORM1","experiment":"default","subject":"6UQBO","internal_node_id":"0.0-4.0-4.0","time_elapsed":359476,"trial_index":12,"trial_type":"html","url":"../views/src/external/stimulus.html","rt":24159},{"answer":["G","O"],"block":"linear_testing","helps":0,"clicked":[["answer","clicked"],["M ","false"],["B ","false"],["J ","false"],["N ","false"],["D ","false"],["O ","false"],["K ","false"],["C ","false"],["F ","false"],["I ","false"],["H ","false"],["G ","false"],["L ","false"],["E ","false"],["A ","false"]],"correct":1,"scaffold":"none","question":"finishes","scenario":"axis","graph":"linear","condition":"0","session":"LMNORM1","experiment":"default","subject":"6UQBO","internal_node_id":"0.0-4.0-6.0","time_elapsed":373192,"trial_index":13,"trial_type":"html","url":"../views/src/external/stimulus.html","rt":12428},{"answer":["F","G","M"],"block":"linear_testing","helps":0,"clicked":[["answer","clicked"],["M ","false"],["B ","false"],["J ","false"],["N ","false"],["D ","false"],["O ","false"],["K ","false"],["C ","false"],["F ","false"],["I ","false"],["H ","false"],["G ","false"],["L ","false"],["E ","false"],["A ","false"]],"correct":0,"scaffold":"none","question":"before+overlap","scenario":"axis","graph":"linear","condition":"0","session":"LMNORM1","experiment":"default","subject":"6UQBO","internal_node_id":"0.0-4.0-1.0","time_elapsed":402849,"trial_index":14,"trial_type":"html","url":"../views/src/external/stimulus.html","rt":28377},{"answer":["A","C","F","G"],"block":"linear_testing","helps":0,"clicked":[["answer","clicked"],["M ","false"],["B ","false"],["J ","false"],["N ","false"],["D ","false"],["O ","false"],["K ","false"],["C ","false"],["F ","false"],["I ","false"],["H ","false"],["G ","false"],["L ","false"],["E ","false"],["A ","false"]],"correct":0,"scaffold":"none","question":"overlap+overlap","scenario":"axis","graph":"linear","condition":"0","session":"LMNORM1","experiment":"default","subject":"6UQBO","internal_node_id":"0.0-4.0-2.0","time_elapsed":424713,"trial_index":15,"trial_type":"html","url":"../views/src/external/stimulus.html","rt":20584},{"answer":["D"],"block":"linear_testing","helps":0,"clicked":[["answer","clicked"],["M ","false"],["B ","false"],["J ","false"],["N ","false"],["D ","false"],["O ","false"],["K ","false"],["C ","false"],["F ","false"],["I ","false"],["H ","false"],["G ","false"],["L ","false"],["E ","false"],["A ","false"]],"correct":0,"scaffold":"none","question":"meets","scenario":"axis","graph":"linear","condition":"0","session":"LMNORM1","experiment":"default","subject":"6UQBO","internal_node_id":"0.0-4.0-8.0","time_elapsed":444017,"trial_index":16,"trial_type":"html","url":"../views/src/external/stimulus.html","rt":18021},{"answer":["A","M","O"],"block":"linear_testing","helps":0,"clicked":[["answer","clicked"],["M ","false"],["B ","false"],["J ","false"],["N ","false"],["D ","false"],["O ","false"],["K ","false"],["C ","false"],["F ","false"],["I ","false"],["H ","false"],["G ","false"],["L ","false"],["E ","false"],["A ","false"]],"correct":0,"scaffold":"none","question":"during","scenario":"axis","graph":"linear","condition":"0","session":"LMNORM1","experiment":"default","subject":"6UQBO","internal_node_id":"0.0-4.0-7.0","time_elapsed":468727,"trial_index":17,"trial_type":"html","url":"../views/src/external/stimulus.html","rt":23426},{"condition":"0","session":"LMNORM1","experiment":"default","subject":"6UQBO","internal_node_id":"0.0-5.0","time_elapsed":488363,"trial_index":18,"trial_type":"survey-text","block":"demo-1","responses":"{\"Q0\":\"33\",\"Q1\":\"United States\",\"Q2\":\"Manager\"}","rt":18632},{"condition":"0","session":"LMNORM1","experiment":"default","subject":"6UQBO","internal_node_id":"0.0-6.0","time_elapsed":510436,"trial_index":19,"trial_type":"survey-multi-choice","block":"demo-2","responses":"{\"Q0\":\"English\",\"Q1\":\"Graduate\",\"Q2\":\"Math or Computer Sciences\",\"Q3\":\"Male\",\"Q4\":\"the first one (linear\"}","rt":21058}],"__v":0}
{"_id":{"$oid":"58b4e92a1ee41f0004deb902"},"data":[{"condition":"0","session":"LMNORM1","experiment":"default","subject":"PBCGX","internal_node_id":"0.0-0.0","time_elapsed":1929,"trial_index":0,"trial_type":"html","block":"instructions_lab","url":"../views/src/external/instructions_turk.html","rt":1640},{"condition":"0","session":"LMNORM1","experiment":"default","subject":"PBCGX","internal_node_id":"0.0-1.0","time_elapsed":13213,"trial_index":1,"trial_type":"survey-text","block":"codes","responses":"{\"Q0\":\"LMNORM1\",\"Q1\":\"0\",\"Q2\":\"A727MLI1PDZEZ\"}","rt":10271},{"condition":"0","session":"LMNORM1","experiment":"default","subject":"PBCGX","internal_node_id":"0.0-2.0","time_elapsed":39698,"trial_index":2,"trial_type":"single-stim","block":"scenario-one","key_press":13,"stimulus":"img/longmire.png","rt":25481},{"answer":["C","D","L"],"block":"linear_scaffolded","helps":0,"clicked":[["answer","clicked"],["A ","false"],["M ","false"],["D ","false"],["N ","false"],["B ","false"],["F ","false"],["H ","false"],["G ","false"],["O ","false"],["C ","false"],["J ","false"],["I ","false"],["E ","false"],["L ","false"],["K ","false"]],"correct":1,"scaffold":"none","question":"start","scenario":"longmire","graph":"linear","condition":"0","session":"LMNORM1","experiment":"default","subject":"PBCGX","internal_node_id":"0.0-3.0-0.0","time_elapsed":75379,"trial_index":3,"trial_type":"html","url":"../views/src/external/stimulus.html","rt":33360},{"answer":["H","J","K","L","O"],"block":"linear_scaffolded","helps":0,"clicked":[["answer","clicked"],["A ","false"],["M ","false"],["D ","false"],["N ","false"],["B ","false"],["F ","false"],["H ","false"],["G ","false"],["O ","false"],["C ","false"],["J ","false"],["I ","false"],["E ","false"],["L ","false"],["K ","false"]],"correct":0,"scaffold":"none","question":"end","scenario":"longmire","graph":"linear","condition":"0","session":"LMNORM1","experiment":"default","subject":"PBCGX","internal_node_id":"0.0-3.0-1.0","time_elapsed":121717,"trial_index":4,"trial_type":"html","url":"../views/src/external/stimulus.html","rt":44451},{"answer":["G","O"],"block":"linear_scaffolded","helps":0,"clicked":[["answer","clicked"],["A ","false"],["M ","false"],["D ","false"],["N ","false"],["B ","false"],["F ","false"],["H ","false"],["G ","false"],["O ","false"],["C ","false"],["J ","false"],["I ","false"],["E ","false"],["L ","false"],["K ","false"]],"correct":1,"scaffold":"none","question":"duration","scenario":"longmire","graph":"linear","condition":"0","session":"LMNORM1","experiment":"default","subject":"PBCGX","internal_node_id":"0.0-3.0-2.0","time_elapsed":146509,"trial_index":5,"trial_type":"html","url":"../views/src/external/stimulus.html","rt":22860},{"answer":["1"],"block":"linear_scaffolded","helps":0,"clicked":[["answer","clicked"],["A ","false"],["M ","false"],["D ","false"],["N ","false"],["B ","false"],["F ","false"],["H ","false"],["G ","false"],["O ","false"],["C ","false"],["J ","false"],["I ","false"],["E ","false"],["L ","false"],["K ","false"]],"correct":1,"scaffold":"none","question":"midpoint","scenario":"longmire","graph":"linear","condition":"0","session":"LMNORM1","experiment":"default","subject":"PBCGX","internal_node_id":"0.0-3.0-3.0","time_elapsed":179255,"trial_index":6,"trial_type":"html","url":"../views/src/external/stimulus.html","rt":30868},{"answer":["A"],"block":"linear_scaffolded","helps":0,"clicked":[["answer","clicked"],["A ","false"],["M ","false"],["D ","false"],["N ","false"],["B ","false"],["F ","false"],["H ","false"],["G ","false"],["O ","false"],["C ","false"],["J ","false"],["I ","false"],["E ","false"],["L ","false"],["K ","false"]],"correct":1,"scaffold":"none","question":"start+overlap","scenario":"longmire","graph":"linear","condition":"0","session":"LMNORM1","experiment":"default","subject":"PBCGX","internal_node_id":"0.0-3.0-4.0","time_elapsed":201238,"trial_index":7,"trial_type":"html","url":"../views/src/external/stimulus.html","rt":20032},{"answer":["M"],"block":"linear_testing","helps":0,"clicked":[["answer","clicked"],["A ","false"],["M ","false"],["D ","false"],["N ","false"],["B ","false"],["F ","false"],["H ","false"],["G ","false"],["O ","false"],["C ","false"],["J ","false"],["I ","false"],["E ","false"],["L ","false"],["K ","false"]],"correct":0,"scaffold":"none","question":"meets","scenario":"longmire","graph":"linear","condition":"0","session":"LMNORM1","experiment":"default","subject":"PBCGX","internal_node_id":"0.0-4.0-8.0","time_elapsed":250247,"trial_index":8,"trial_type":"html","url":"../views/src/external/stimulus.html","rt":46108},{"answer":["K","L"],"block":"linear_testing","helps":0,"clicked":[["answer","clicked"],["A ","false"],["M ","false"],["D ","false"],["N ","false"],["B ","false"],["F ","false"],["H ","false"],["G ","false"],["O ","false"],["C ","false"],["J ","false"],["I ","false"],["E ","false"],["L ","false"],["K ","false"]],"correct":0,"scaffold":"none","question":"contain+duration","scenario":"longmire","graph":"linear","condition":"0","session":"LMNORM1","experiment":"default","subject":"PBCGX","internal_node_id":"0.0-4.0-4.0","time_elapsed":273855,"trial_index":9,"trial_type":"html","url":"../views/src/external/stimulus.html","rt":21498},{"answer":["B","C","D","F","G","H","I","J","L","O"],"block":"linear_testing","helps":0,"clicked":[["answer","clicked"],["A ","false"],["M ","false"],["D ","false"],["N ","false"],["B ","false"],["F ","false"],["H ","false"],["G ","false"],["O ","false"],["C ","false"],["J ","false"],["I ","false"],["E ","false"],["L ","false"],["K ","false"]],"correct":0,"scaffold":"none","question":"during","scenario":"longmire","graph":"linear","condition":"0","session":"LMNORM1","experiment":"default","subject":"PBCGX","internal_node_id":"0.0-4.0-7.0","time_elapsed":384112,"trial_index":10,"trial_type":"html","url":"../views/src/external/stimulus.html","rt":108311},{"answer":["6"],"block":"linear_testing","helps":0,"clicked":[["answer","clicked"],["A ","false"],["M ","false"],["D ","false"],["N ","false"],["B ","false"],["F ","false"],["H ","false"],["G ","false"],["O ","false"],["C ","false"],["J ","false"],["I ","false"],["E ","false"],["L ","false"],["K ","false"]],"correct":0,"scaffold":"none","question":"starts","scenario":"longmire","graph":"linear","condition":"0","session":"LMNORM1","experiment":"default","subject":"PBCGX","internal_node_id":"0.0-4.0-5.0","time_elapsed":424653,"trial_index":11,"trial_type":"html","url":"../views/src/external/stimulus.html","rt":37777},{"answer":["C"],"block":"linear_testing","helps":0,"clicked":[["answer","clicked"],["A ","false"],["M ","false"],["D ","false"],["N ","false"],["B ","false"],["F ","false"],["H ","false"],["G ","false"],["O ","false"],["C ","false"],["J ","false"],["I ","false"],["E ","false"],["L ","false"],["K ","false"]],"correct":1,"scaffold":"none","question":"starts+finishes","scenario":"longmire","graph":"linear","condition":"0","session":"LMNORM1","experiment":"default","subject":"PBCGX","internal_node_id":"0.0-4.0-9.0","time_elapsed":447026,"trial_index":12,"trial_type":"html","url":"../views/src/external/stimulus.html","rt":20418},{"answer":["5"],"block":"linear_testing","helps":0,"clicked":[["answer","clicked"],["A ","false"],["M ","false"],["D ","false"],["N ","false"],["B ","false"],["F ","false"],["H ","false"],["G ","false"],["O ","false"],["C ","false"],["J ","false"],["I ","false"],["E ","false"],["L ","false"],["K ","false"]],"correct":0,"scaffold":"none","question":"finishes","scenario":"longmire","graph":"linear","condition":"0","session":"LMNORM1","experiment":"default","subject":"PBCGX","internal_node_id":"0.0-4.0-6.0","time_elapsed":471963,"trial_index":13,"trial_type":"html","url":"../views/src/external/stimulus.html","rt":22903},{"answer":["A"],"block":"linear_testing","helps":0,"clicked":[["answer","clicked"],["A ","false"],["M ","false"],["D ","false"],["N ","false"],["B ","false"],["F ","false"],["H ","false"],["G ","false"],["O ","false"],["C ","false"],["J ","false"],["I ","false"],["E ","false"],["L ","false"],["K ","false"]],"correct":0,"scaffold":"none","question":"overlap+overlap","scenario":"longmire","graph":"linear","condition":"0","session":"LMNORM1","experiment":"default","subject":"PBCGX","internal_node_id":"0.0-4.0-2.0","time_elapsed":498450,"trial_index":14,"trial_type":"html","url":"../views/src/external/stimulus.html","rt":24515},{"answer":["A","B","D","F"],"block":"linear_testing","helps":0,"clicked":[["answer","clicked"],["A ","false"],["M ","false"],["D ","false"],["N ","false"],["B ","false"],["F ","false"],["H ","false"],["G ","false"],["O ","false"],["C ","false"],["J ","false"],["I ","false"],["E ","false"],["L ","false"],["K ","false"]],"correct":0,"scaffold":"none","question":"before+overlap","scenario":"longmire","graph":"linear","condition":"0","session":"LMNORM1","experiment":"default","subject":"PBCGX","internal_node_id":"0.0-4.0-1.0","time_elapsed":557479,"trial_index":15,"trial_type":"html","url":"../views/src/external/stimulus.html","rt":57153},{"answer":["E","G","I","J","K","L"],"block":"linear_testing","helps":0,"clicked":[["answer","clicked"],["A ","false"],["M ","false"],["D ","false"],["N ","false"],["B ","false"],["F ","false"],["H ","false"],["G ","false"],["O ","false"],["C ","false"],["J ","false"],["I ","false"],["E ","false"],["L ","false"],["K ","false"]],"correct":0,"scaffold":"none","question":"start+duration","scenario":"longmire","graph":"linear","condition":"0","session":"LMNORM1","experiment":"default","subject":"PBCGX","internal_node_id":"0.0-4.0-0.0","time_elapsed":608026,"trial_index":16,"trial_type":"html","url":"../views/src/external/stimulus.html","rt":48588},{"answer":["J","K","L"],"block":"linear_testing","helps":0,"clicked":[["answer","clicked"],["A ","false"],["M ","false"],["D ","false"],["N ","false"],["B ","false"],["F ","false"],["H ","false"],["G ","false"],["O ","false"],["C ","false"],["J ","false"],["I ","false"],["E ","false"],["L ","false"],["K ","false"]],"correct":0,"scaffold":"none","question":"during+overlap","scenario":"longmire","graph":"linear","condition":"0","session":"LMNORM1","experiment":"default","subject":"PBCGX","internal_node_id":"0.0-4.0-3.0","time_elapsed":671540,"trial_index":17,"trial_type":"html","url":"../views/src/external/stimulus.html","rt":61610},{"condition":"0","session":"LMNORM1","experiment":"default","subject":"PBCGX","internal_node_id":"0.0-5.0","time_elapsed":686744,"trial_index":18,"trial_type":"survey-text","block":"demo-1","responses":"{\"Q0\":\"32\",\"Q1\":\"India\",\"Q2\":\"Self Employed\"}","rt":14193},{"condition":"0","session":"LMNORM1","experiment":"default","subject":"PBCGX","internal_node_id":"0.0-6.0","time_elapsed":722393,"trial_index":19,"trial_type":"survey-multi-choice","block":"demo-2","responses":"{\"Q0\":\"Other\",\"Q1\":\"Graduate\",\"Q2\":\"Engineering\",\"Q3\":\"Male\",\"Q4\":\"the first one (linear\"}","rt":34621}],"__v":0}
{"_id":{"$oid":"58b4ea701ee41f0004deb903"},"data":[{"condition":0,"session":"override","experiment":"default","subject":"6U6JR","internal_node_id":"0.0-0.0","time_elapsed":5286,"trial_index":0,"trial_type":"html","block":"instructions_lab","url":"../views/src/external/instructions_turk.html","rt":5045},{"condition":0,"session":"override","experiment":"default","subject":"6U6JR","internal_node_id":"0.0-1.0","time_elapsed":23236,"trial_index":1,"trial_type":"survey-text","block":"codes","responses":"{\"Q0\":\"\",\"Q1\":\"\",\"Q2\":\"A29YF0V6JZWZ4T\\n\"}","rt":16939},{"condition":0,"session":"override","experiment":"default","subject":"6U6JR","internal_node_id":"0.0-2.0","time_elapsed":37362,"trial_index":2,"trial_type":"single-stim","block":"scenario-one","key_press":32,"stimulus":"img/longmire.png","rt":13122},{"answer":["C","D","L"],"block":"linear_scaffolded","helps":0,"clicked":[["answer","clicked"],["A ","false"],["M ","false"],["D ","false"],["N ","false"],["B ","false"],["F ","false"],["H ","false"],["G ","false"],["O ","false"],["C ","false"],["J ","false"],["I ","false"],["E ","false"],["L ","false"],["K ","false"]],"correct":1,"scaffold":"none","question":"start","scenario":"longmire","graph":"linear","condition":0,"session":"override","experiment":"default","subject":"6U6JR","internal_node_id":"0.0-3.0-0.0","time_elapsed":64281,"trial_index":3,"trial_type":"html","url":"../views/src/external/stimulus.html","rt":22996},{"answer":["K","L","M","N"],"block":"linear_scaffolded","helps":0,"clicked":[["answer","clicked"],["A ","false"],["M ","false"],["D ","false"],["N ","false"],["B ","false"],["F ","false"],["H ","false"],["G ","false"],["O ","false"],["C ","false"],["J ","false"],["I ","false"],["E ","false"],["L ","false"],["K ","false"]],"correct":0,"scaffold":"none","question":"end","scenario":"longmire","graph":"linear","condition":0,"session":"override","experiment":"default","subject":"6U6JR","internal_node_id":"0.0-3.0-1.0","time_elapsed":85122,"trial_index":4,"trial_type":"html","url":"../views/src/external/stimulus.html","rt":18605},{"answer":["G","O"],"block":"linear_scaffolded","helps":0,"clicked":[["answer","clicked"],["A ","false"],["M ","false"],["D ","false"],["N ","false"],["B ","false"],["F ","false"],["H ","false"],["G ","false"],["O ","false"],["C ","false"],["J ","false"],["I ","false"],["E ","false"],["L ","false"],["K ","false"]],"correct":1,"scaffold":"none","question":"duration","scenario":"longmire","graph":"linear","condition":0,"session":"override","experiment":"default","subject":"6U6JR","internal_node_id":"0.0-3.0-2.0","time_elapsed":111796,"trial_index":5,"trial_type":"html","url":"../views/src/external/stimulus.html","rt":24458},{"answer":["1"],"block":"linear_scaffolded","helps":0,"clicked":[["answer","clicked"],["A ","false"],["M ","false"],["D ","false"],["N ","false"],["B ","false"],["F ","false"],["H ","false"],["G ","false"],["O ","false"],["C ","false"],["J ","false"],["I ","false"],["E ","false"],["L ","false"],["K ","false"]],"correct":1,"scaffold":"none","question":"midpoint","scenario":"longmire","graph":"linear","condition":0,"session":"override","experiment":"default","subject":"6U6JR","internal_node_id":"0.0-3.0-3.0","time_elapsed":125130,"trial_index":6,"trial_type":"html","url":"../views/src/external/stimulus.html","rt":10680},{"answer":["A"],"block":"linear_scaffolded","helps":0,"clicked":[["answer","clicked"],["A ","false"],["M ","false"],["D ","false"],["N ","false"],["B ","false"],["F ","false"],["H ","false"],["G ","false"],["O ","false"],["C ","false"],["J ","false"],["I ","false"],["E ","false"],["L ","false"],["K ","false"]],"correct":1,"scaffold":"none","question":"start+overlap","scenario":"longmire","graph":"linear","condition":0,"session":"override","experiment":"default","subject":"6U6JR","internal_node_id":"0.0-3.0-4.0","time_elapsed":154419,"trial_index":7,"trial_type":"html","url":"../views/src/external/stimulus.html","rt":26884},{"answer":["6"],"block":"linear_testing","helps":0,"clicked":[["answer","clicked"],["A ","false"],["M ","false"],["D ","false"],["N ","false"],["B ","false"],["F ","false"],["H ","false"],["G ","false"],["O ","false"],["C ","false"],["J ","false"],["I ","false"],["E ","false"],["L ","false"],["K ","false"]],"correct":0,"scaffold":"none","question":"starts","scenario":"longmire","graph":"linear","condition":0,"session":"override","experiment":"default","subject":"6U6JR","internal_node_id":"0.0-4.0-5.0","time_elapsed":180231,"trial_index":8,"trial_type":"html","url":"../views/src/external/stimulus.html","rt":22429},{"answer":["K","L"],"block":"linear_testing","helps":0,"clicked":[["answer","clicked"],["A ","false"],["M ","false"],["D ","false"],["N ","false"],["B ","false"],["F ","false"],["H ","false"],["G ","false"],["O ","false"],["C ","false"],["J ","false"],["I ","false"],["E ","false"],["L ","false"],["K ","false"]],"correct":1,"scaffold":"none","question":"during+overlap","scenario":"longmire","graph":"linear","condition":0,"session":"override","experiment":"default","subject":"6U6JR","internal_node_id":"0.0-4.0-3.0","time_elapsed":225139,"trial_index":9,"trial_type":"html","url":"../views/src/external/stimulus.html","rt":42705},{"answer":["C"],"block":"linear_testing","helps":0,"clicked":[["answer","clicked"],["A ","false"],["M ","false"],["D ","false"],["N ","false"],["B ","false"],["F ","false"],["H ","false"],["G ","false"],["O ","false"],["C ","false"],["J ","false"],["I ","false"],["E ","false"],["L ","false"],["K ","false"]],"correct":1,"scaffold":"none","question":"starts+finishes","scenario":"longmire","graph":"linear","condition":0,"session":"override","experiment":"default","subject":"6U6JR","internal_node_id":"0.0-4.0-9.0","time_elapsed":255609,"trial_index":10,"trial_type":"html","url":"../views/src/external/stimulus.html","rt":28195},{"answer":["B","C","D","G","H","I","J","L","O"],"block":"linear_testing","helps":0,"clicked":[["answer","clicked"],["A ","false"],["M ","false"],["D ","false"],["N ","false"],["B ","false"],["F ","false"],["H ","false"],["G ","false"],["O ","false"],["C ","false"],["J ","false"],["I ","false"],["E ","false"],["L ","false"],["K ","false"]],"correct":0,"scaffold":"none","question":"during","scenario":"longmire","graph":"linear","condition":0,"session":"override","experiment":"default","subject":"6U6JR","internal_node_id":"0.0-4.0-7.0","time_elapsed":368881,"trial_index":11,"trial_type":"html","url":"../views/src/external/stimulus.html","rt":110403},{"answer":["O"],"block":"linear_testing","helps":0,"clicked":[["answer","clicked"],["A ","false"],["M ","false"],["D ","false"],["N ","false"],["B ","false"],["F ","false"],["H ","false"],["G ","false"],["O ","false"],["C ","false"],["J ","false"],["I ","false"],["E ","false"],["L ","false"],["K ","false"]],"correct":1,"scaffold":"none","question":"meets","scenario":"longmire","graph":"linear","condition":0,"session":"override","experiment":"default","subject":"6U6JR","internal_node_id":"0.0-4.0-8.0","time_elapsed":409479,"trial_index":12,"trial_type":"html","url":"../views/src/external/stimulus.html","rt":34470},{"answer":["G","O"],"block":"linear_testing","helps":0,"clicked":[["answer","clicked"],["A ","false"],["M ","false"],["D ","false"],["N ","false"],["B ","false"],["F ","false"],["H ","false"],["G ","false"],["O ","false"],["C ","false"],["J ","false"],["I ","false"],["E ","false"],["L ","false"],["K ","false"]],"correct":1,"scaffold":"none","question":"contain+duration","scenario":"longmire","graph":"linear","condition":0,"session":"override","experiment":"default","subject":"6U6JR","internal_node_id":"0.0-4.0-4.0","time_elapsed":474494,"trial_index":13,"trial_type":"html","url":"../views/src/external/stimulus.html","rt":61815},{"answer":["B","F"],"block":"linear_testing","helps":0,"clicked":[["answer","clicked"],["A ","false"],["M ","false"],["D ","false"],["N ","false"],["B ","false"],["F ","false"],["H ","false"],["G ","false"],["O ","false"],["C ","false"],["J ","false"],["I ","false"],["E ","false"],["L ","false"],["K ","false"]],"correct":0,"scaffold":"none","question":"start+duration","scenario":"longmire","graph":"linear","condition":0,"session":"override","experiment":"default","subject":"6U6JR","internal_node_id":"0.0-4.0-0.0","time_elapsed":512236,"trial_index":14,"trial_type":"html","url":"../views/src/external/stimulus.html","rt":32752},{"answer":["A","M","N"],"block":"linear_testing","helps":0,"clicked":[["answer","clicked"],["A ","false"],["M ","false"],["D ","false"],["N ","false"],["B ","false"],["F ","false"],["H ","false"],["G ","false"],["O ","false"],["C ","false"],["J ","false"],["I ","false"],["E ","false"],["L ","false"],["K ","false"]],"correct":1,"scaffold":"none","question":"overlap+overlap","scenario":"longmire","graph":"linear","condition":0,"session":"override","experiment":"default","subject":"6U6JR","internal_node_id":"0.0-4.0-2.0","time_elapsed":568576,"trial_index":15,"trial_type":"html","url":"../views/src/external/stimulus.html","rt":53889},{"answer":["A","B","D","F"],"block":"linear_testing","helps":0,"clicked":[["answer","clicked"],["A ","false"],["M ","false"],["D ","false"],["N ","false"],["B ","false"],["F ","false"],["H ","false"],["G ","false"],["O ","false"],["C ","false"],["J ","false"],["I ","false"],["E ","false"],["L ","false"],["K ","false"]],"correct":0,"scaffold":"none","question":"before+overlap","scenario":"longmire","graph":"linear","condition":0,"session":"override","experiment":"default","subject":"6U6JR","internal_node_id":"0.0-4.0-1.0","time_elapsed":607273,"trial_index":16,"trial_type":"html","url":"../views/src/external/stimulus.html","rt":35120},{"answer":["1","4","5"],"block":"linear_testing","helps":0,"clicked":[["answer","clicked"],["A ","false"],["M ","false"],["D ","false"],["N ","false"],["B ","false"],["F ","false"],["H ","false"],["G ","false"],["O ","false"],["C ","false"],["J ","false"],["I ","false"],["E ","false"],["L ","false"],["K ","false"]],"correct":0,"scaffold":"none","question":"finishes","scenario":"longmire","graph":"linear","condition":0,"session":"override","experiment":"default","subject":"6U6JR","internal_node_id":"0.0-4.0-6.0","time_elapsed":659962,"trial_index":17,"trial_type":"html","url":"../views/src/external/stimulus.html","rt":50350},{"condition":0,"session":"override","experiment":"default","subject":"6U6JR","internal_node_id":"0.0-5.0","time_elapsed":672105,"trial_index":18,"trial_type":"survey-text","block":"demo-1","responses":"{\"Q0\":\"26\",\"Q1\":\"Vietnam\",\"Q2\":\"Pharmacist\"}","rt":11139},{"condition":0,"session":"override","experiment":"default","subject":"6U6JR","internal_node_id":"0.0-6.0","time_elapsed":693111,"trial_index":19,"trial_type":"survey-multi-choice","block":"demo-2","responses":"{\"Q0\":\"Other\",\"Q1\":\"Graduate\",\"Q2\":\"Biomedical \u0026 Health Sciences\",\"Q3\":\"Female\",\"Q4\":\"the first one (linear\"}","rt":19985}],"__v":0}
{"_id":{"$oid":"58b4ed0a1ee41f0004deb904"},"data":[{"condition":"0","session":"LMNORM1","experiment":"default","subject":"2BY93","internal_node_id":"0.0-0.0","time_elapsed":24426,"trial_index":0,"trial_type":"html","block":"instructions_lab","url":"../views/src/external/instructions_turk.html","rt":24306},{"condition":"0","session":"LMNORM1","experiment":"default","subject":"2BY93","internal_node_id":"0.0-1.0","time_elapsed":68599,"trial_index":1,"trial_type":"survey-text","block":"codes","responses":"{\"Q0\":\"LMNORM1\",\"Q1\":\"0\",\"Q2\":\"A1FO92BDGHC2K1\\n\"}","rt":43142},{"condition":"0","session":"LMNORM1","experiment":"default","subject":"2BY93","internal_node_id":"0.0-2.0","time_elapsed":90217,"trial_index":2,"trial_type":"single-stim","block":"scenario-one","key_press":13,"stimulus":"img/longmire.png","rt":20608},{"answer":["C","D","L"],"block":"linear_scaffolded","helps":0,"clicked":[["answer","clicked"],["A ","false"],["M ","false"],["D ","false"],["N ","false"],["B ","false"],["F ","false"],["H ","false"],["G ","false"],["O ","false"],["C ","false"],["J ","false"],["I ","false"],["E ","false"],["L ","false"],["K ","false"]],"correct":1,"scaffold":"none","question":"start","scenario":"longmire","graph":"linear","condition":"0","session":"LMNORM1","experiment":"default","subject":"2BY93","internal_node_id":"0.0-3.0-0.0","time_elapsed":129825,"trial_index":3,"trial_type":"html","url":"../views/src/external/stimulus.html","rt":37941},{"answer":["J","K","L","M","N","O"],"block":"linear_scaffolded","helps":0,"clicked":[["answer","clicked"],["A ","false"],["M ","false"],["D ","false"],["N ","false"],["B ","false"],["F ","false"],["H ","false"],["G ","false"],["O ","false"],["C ","false"],["J ","false"],["I ","false"],["E ","false"],["L ","false"],["K ","false"]],"correct":0,"scaffold":"none","question":"end","scenario":"longmire","graph":"linear","condition":"0","session":"LMNORM1","experiment":"default","subject":"2BY93","internal_node_id":"0.0-3.0-1.0","time_elapsed":184288,"trial_index":4,"trial_type":"html","url":"../views/src/external/stimulus.html","rt":53144},{"answer":["G","O"],"block":"linear_scaffolded","helps":0,"clicked":[["answer","clicked"],["A ","false"],["M ","false"],["D ","false"],["N ","false"],["B ","false"],["F ","false"],["H ","false"],["G ","false"],["O ","false"],["C ","false"],["J ","false"],["I ","false"],["E ","false"],["L ","false"],["K ","false"]],"correct":1,"scaffold":"none","question":"duration","scenario":"longmire","graph":"linear","condition":"0","session":"LMNORM1","experiment":"default","subject":"2BY93","internal_node_id":"0.0-3.0-2.0","time_elapsed":213100,"trial_index":5,"trial_type":"html","url":"../views/src/external/stimulus.html","rt":27467},{"answer":["1"],"block":"linear_scaffolded","helps":0,"clicked":[["answer","clicked"],["A ","false"],["M ","false"],["D ","false"],["N ","false"],["B ","false"],["F ","false"],["H ","false"],["G ","false"],["O ","false"],["C ","false"],["J ","false"],["I ","false"],["E ","false"],["L ","false"],["K ","false"]],"correct":1,"scaffold":"none","question":"midpoint","scenario":"longmire","graph":"linear","condition":"0","session":"LMNORM1","experiment":"default","subject":"2BY93","internal_node_id":"0.0-3.0-3.0","time_elapsed":231997,"trial_index":6,"trial_type":"html","url":"../views/src/external/stimulus.html","rt":17529},{"answer":["A"],"block":"linear_scaffolded","helps":0,"clicked":[["answer","clicked"],["A ","false"],["M ","false"],["D ","false"],["N ","false"],["B ","false"],["F ","false"],["H ","false"],["G ","false"],["O ","false"],["C ","false"],["J ","false"],["I ","false"],["E ","false"],["L ","false"],["K ","false"]],"correct":1,"scaffold":"none","question":"start+overlap","scenario":"longmire","graph":"linear","condition":"0","session":"LMNORM1","experiment":"default","subject":"2BY93","internal_node_id":"0.0-3.0-4.0","time_elapsed":259276,"trial_index":7,"trial_type":"html","url":"../views/src/external/stimulus.html","rt":25858},{"answer":["A","B","D","F"],"block":"linear_testing","helps":0,"clicked":[["answer","clicked"],["A ","false"],["M ","false"],["D ","false"],["N ","false"],["B ","false"],["F ","false"],["H ","false"],["G ","false"],["O ","false"],["C ","false"],["J ","false"],["I ","false"],["E ","false"],["L ","false"],["K ","false"]],"correct":1,"scaffold":"none","question":"start+duration","scenario":"longmire","graph":"linear","condition":"0","session":"LMNORM1","experiment":"default","subject":"2BY93","internal_node_id":"0.0-4.0-0.0","time_elapsed":297950,"trial_index":8,"trial_type":"html","url":"../views/src/external/stimulus.html","rt":37342},{"answer":["O"],"block":"linear_testing","helps":0,"clicked":[["answer","clicked"],["A ","false"],["M ","false"],["D ","false"],["N ","false"],["B ","false"],["F ","false"],["H ","false"],["G ","false"],["O ","false"],["C ","false"],["J ","false"],["I ","false"],["E ","false"],["L ","false"],["K ","false"]],"correct":1,"scaffold":"none","question":"meets","scenario":"longmire","graph":"linear","condition":"0","session":"LMNORM1","experiment":"default","subject":"2BY93","internal_node_id":"0.0-4.0-8.0","time_elapsed":317910,"trial_index":9,"trial_type":"html","url":"../views/src/external/stimulus.html","rt":18552},{"answer":["A","B","D","F"],"block":"linear_testing","helps":0,"clicked":[["answer","clicked"],["A ","false"],["M ","false"],["D ","false"],["N ","false"],["B ","false"],["F ","false"],["H ","false"],["G ","false"],["O ","false"],["C ","false"],["J ","false"],["I ","false"],["E ","false"],["L ","false"],["K ","false"]],"correct":0,"scaffold":"none","question":"before+overlap","scenario":"longmire","graph":"linear","condition":"0","session":"LMNORM1","experiment":"default","subject":"2BY93","internal_node_id":"0.0-4.0-1.0","time_elapsed":355285,"trial_index":10,"trial_type":"html","url":"../views/src/external/stimulus.html","rt":36005},{"answer":["C"],"block":"linear_testing","helps":0,"clicked":[["answer","clicked"],["A ","false"],["M ","false"],["D ","false"],["N ","false"],["B ","false"],["F ","false"],["H ","false"],["G ","false"],["O ","false"],["C ","false"],["J ","false"],["I ","false"],["E ","false"],["L ","false"],["K ","false"]],"correct":1,"scaffold":"none","question":"starts+finishes","scenario":"longmire","graph":"linear","condition":"0","session":"LMNORM1","experiment":"default","subject":"2BY93","internal_node_id":"0.0-4.0-9.0","time_elapsed":390086,"trial_index":11,"trial_type":"html","url":"../views/src/external/stimulus.html","rt":33373},{"answer":["G","O"],"block":"linear_testing","helps":0,"clicked":[["answer","clicked"],["A ","false"],["M ","false"],["D ","false"],["N ","false"],["B ","false"],["F ","false"],["H ","false"],["G ","false"],["O ","false"],["C ","false"],["J ","false"],["I ","false"],["E ","false"],["L ","false"],["K ","false"]],"correct":1,"scaffold":"none","question":"contain+duration","scenario":"longmire","graph":"linear","condition":"0","session":"LMNORM1","experiment":"default","subject":"2BY93","internal_node_id":"0.0-4.0-4.0","time_elapsed":418758,"trial_index":12,"trial_type":"html","url":"../views/src/external/stimulus.html","rt":27354},{"answer":["B","C","D","E","F","G","H","I","J","K","L","O"],"block":"linear_testing","helps":0,"clicked":[["answer","clicked"],["A ","false"],["M ","false"],["D ","false"],["N ","false"],["B ","false"],["F ","false"],["H ","false"],["G ","false"],["O ","false"],["C ","false"],["J ","false"],["I ","false"],["E ","false"],["L ","false"],["K ","false"]],"correct":0,"scaffold":"none","question":"during","scenario":"longmire","graph":"linear","condition":"0","session":"LMNORM1","experiment":"default","subject":"2BY93","internal_node_id":"0.0-4.0-7.0","time_elapsed":500708,"trial_index":13,"trial_type":"html","url":"../views/src/external/stimulus.html","rt":80621},{"answer":["8"],"block":"linear_testing","helps":0,"clicked":[["answer","clicked"],["A ","false"],["M ","false"],["D ","false"],["N ","false"],["B ","false"],["F ","false"],["H ","false"],["G ","false"],["O ","false"],["C ","false"],["J ","false"],["I ","false"],["E ","false"],["L ","false"],["K ","false"]],"correct":0,"scaffold":"none","question":"starts","scenario":"longmire","graph":"linear","condition":"0","session":"LMNORM1","experiment":"default","subject":"2BY93","internal_node_id":"0.0-4.0-5.0","time_elapsed":565107,"trial_index":14,"trial_type":"html","url":"../views/src/external/stimulus.html","rt":61900},{"answer":["A","M","N"],"block":"linear_testing","helps":0,"clicked":[["answer","clicked"],["A ","false"],["M ","false"],["D ","false"],["N ","false"],["B ","false"],["F ","false"],["H ","false"],["G ","false"],["O ","false"],["C ","false"],["J ","false"],["I ","false"],["E ","false"],["L ","false"],["K ","false"]],"correct":1,"scaffold":"none","question":"overlap+overlap","scenario":"longmire","graph":"linear","condition":"0","session":"LMNORM1","experiment":"default","subject":"2BY93","internal_node_id":"0.0-4.0-2.0","time_elapsed":616615,"trial_index":15,"trial_type":"html","url":"../views/src/external/stimulus.html","rt":48866},{"answer":["K","L"],"block":"linear_testing","helps":0,"clicked":[["answer","clicked"],["A ","false"],["M ","false"],["D ","false"],["N ","false"],["B ","false"],["F ","false"],["H ","false"],["G ","false"],["O ","false"],["C ","false"],["J ","false"],["I ","false"],["E ","false"],["L ","false"],["K ","false"]],"correct":1,"scaffold":"none","question":"during+overlap","scenario":"longmire","graph":"linear","condition":"0","session":"LMNORM1","experiment":"default","subject":"2BY93","internal_node_id":"0.0-4.0-3.0","time_elapsed":667691,"trial_index":16,"trial_type":"html","url":"../views/src/external/stimulus.html","rt":49751},{"answer":["4","5"],"block":"linear_testing","helps":0,"clicked":[["answer","clicked"],["A ","false"],["M ","false"],["D ","false"],["N ","false"],["B ","false"],["F ","false"],["H ","false"],["G ","false"],["O ","false"],["C ","false"],["J ","false"],["I ","false"],["E ","false"],["L ","false"],["K ","false"]],"correct":1,"scaffold":"none","question":"finishes","scenario":"longmire","graph":"linear","condition":"0","session":"LMNORM1","experiment":"default","subject":"2BY93","internal_node_id":"0.0-4.0-6.0","time_elapsed":707397,"trial_index":17,"trial_type":"html","url":"../views/src/external/stimulus.html","rt":38393},{"condition":"0","session":"LMNORM1","experiment":"default","subject":"2BY93","internal_node_id":"0.0-5.0","time_elapsed":719886,"trial_index":18,"trial_type":"survey-text","block":"demo-1","responses":"{\"Q0\":\"30\",\"Q1\":\"UAE\",\"Q2\":\"Tutor\"}","rt":11466},{"condition":"0","session":"LMNORM1","experiment":"default","subject":"2BY93","internal_node_id":"0.0-6.0","time_elapsed":751171,"trial_index":19,"trial_type":"survey-multi-choice","block":"demo-2","responses":"{\"Q0\":\"Other\",\"Q1\":\"Graduate\",\"Q2\":\"Social Sciences (incl. CogSci)\",\"Q3\":\"Female\",\"Q4\":\"the first one (linear\"}","rt":30207}],"__v":0}
{"_id":{"$oid":"58b4f4ae1ee41f0004deb905"},"data":[{"condition":0,"session":"override","experiment":"default","subject":"5R6P1","internal_node_id":"0.0-0.0","time_elapsed":5569,"trial_index":0,"trial_type":"html","block":"instructions_lab","url":"../views/src/external/instructions_turk.html","rt":5562},{"condition":0,"session":"override","experiment":"default","subject":"5R6P1","internal_node_id":"0.0-1.0","time_elapsed":29302,"trial_index":1,"trial_type":"survey-text","block":"codes","responses":"{\"Q0\":\"\",\"Q1\":\"\",\"Q2\":\"A1QE0VF6QPIU9J\"}","rt":22726},{"condition":0,"session":"override","experiment":"default","subject":"5R6P1","internal_node_id":"0.0-2.0","time_elapsed":33669,"trial_index":2,"trial_type":"single-stim","block":"scenario-one","key_press":13,"stimulus":"img/longmire.png","rt":3363},{"answer":["C","L"],"block":"linear_scaffolded","helps":0,"clicked":[["answer","clicked"],["A ","false"],["M ","false"],["D ","false"],["N ","false"],["B ","false"],["F ","false"],["H ","false"],["G ","false"],["O ","false"],["C ","false"],["J ","false"],["I ","false"],["E ","false"],["L ","false"],["K ","false"]],"correct":0,"scaffold":"none","question":"start","scenario":"longmire","graph":"linear","condition":0,"session":"override","experiment":"default","subject":"5R6P1","internal_node_id":"0.0-3.0-0.0","time_elapsed":49484,"trial_index":3,"trial_type":"html","url":"../views/src/external/stimulus.html","rt":14581},{"answer":["H","J","K","L","M","N","O"],"block":"linear_scaffolded","helps":0,"clicked":[["answer","clicked"],["A ","false"],["M ","false"],["D ","false"],["N ","false"],["B ","false"],["F ","false"],["H ","false"],["G ","false"],["O ","false"],["C ","false"],["J ","false"],["I ","false"],["E ","false"],["L ","false"],["K ","false"]],"correct":1,"scaffold":"none","question":"end","scenario":"longmire","graph":"linear","condition":0,"session":"override","experiment":"default","subject":"5R6P1","internal_node_id":"0.0-3.0-1.0","time_elapsed":75976,"trial_index":4,"trial_type":"html","url":"../views/src/external/stimulus.html","rt":25338},{"answer":["G","O"],"block":"linear_scaffolded","helps":0,"clicked":[["answer","clicked"],["A ","false"],["M ","false"],["D ","false"],["N ","false"],["B ","false"],["F ","false"],["H ","false"],["G ","false"],["O ","false"],["C ","false"],["J ","false"],["I ","false"],["E ","false"],["L ","false"],["K ","false"]],"correct":1,"scaffold":"none","question":"duration","scenario":"longmire","graph":"linear","condition":0,"session":"override","experiment":"default","subject":"5R6P1","internal_node_id":"0.0-3.0-2.0","time_elapsed":102614,"trial_index":5,"trial_type":"html","url":"../views/src/external/stimulus.html","rt":25485},{"answer":["1"],"block":"linear_scaffolded","helps":0,"clicked":[["answer","clicked"],["A ","false"],["M ","false"],["D ","false"],["N ","false"],["B ","false"],["F ","false"],["H ","false"],["G ","false"],["O ","false"],["C ","false"],["J ","false"],["I ","false"],["E ","false"],["L ","false"],["K ","false"]],"correct":1,"scaffold":"none","question":"midpoint","scenario":"longmire","graph":"linear","condition":0,"session":"override","experiment":"default","subject":"5R6P1","internal_node_id":"0.0-3.0-3.0","time_elapsed":118144,"trial_index":6,"trial_type":"html","url":"../views/src/external/stimulus.html","rt":14376},{"answer":["H"],"block":"linear_scaffolded","helps":0,"clicked":[["answer","clicked"],["A ","false"],["M ","false"],["D ","false"],["N ","false"],["B ","false"],["F ","false"],["H ","false"],["G ","false"],["O ","false"],["C ","false"],["J ","false"],["I ","false"],["E ","false"],["L ","false"],["K ","false"]],"correct":0,"scaffold":"none","question":"start+overlap","scenario":"longmire","graph":"linear","condition":0,"session":"override","experiment":"default","subject":"5R6P1","internal_node_id":"0.0-3.0-4.0","time_elapsed":141220,"trial_index":7,"trial_type":"html","url":"../views/src/external/stimulus.html","rt":21924},{"answer":["G","O"],"block":"linear_testing","helps":0,"clicked":[["answer","clicked"],["A ","false"],["M ","false"],["D ","false"],["N ","false"],["B ","false"],["F ","false"],["H ","false"],["G ","false"],["O ","false"],["C ","false"],["J ","false"],["I ","false"],["E ","false"],["L ","false"],["K ","false"]],"correct":1,"scaffold":"none","question":"contain+duration","scenario":"longmire","graph":"linear","condition":0,"session":"override","experiment":"default","subject":"5R6P1","internal_node_id":"0.0-4.0-4.0","time_elapsed":169955,"trial_index":8,"trial_type":"html","url":"../views/src/external/stimulus.html","rt":27590},{"answer":["4"],"block":"linear_testing","helps":0,"clicked":[["answer","clicked"],["A ","false"],["M ","false"],["D ","false"],["N ","false"],["B ","false"],["F ","false"],["H ","false"],["G ","false"],["O ","false"],["C ","false"],["J ","false"],["I ","false"],["E ","false"],["L ","false"],["K ","false"]],"correct":0,"scaffold":"none","question":"finishes","scenario":"longmire","graph":"linear","condition":0,"session":"override","experiment":"default","subject":"5R6P1","internal_node_id":"0.0-4.0-6.0","time_elapsed":184474,"trial_index":9,"trial_type":"html","url":"../views/src/external/stimulus.html","rt":13363},{"answer":["O"],"block":"linear_testing","helps":0,"clicked":[["answer","clicked"],["A ","false"],["M ","false"],["D ","false"],["N ","false"],["B ","false"],["F ","false"],["H ","false"],["G ","false"],["O ","false"],["C ","false"],["J ","false"],["I ","false"],["E ","false"],["L ","false"],["K ","false"]],"correct":1,"scaffold":"none","question":"meets","scenario":"longmire","graph":"linear","condition":0,"session":"override","experiment":"default","subject":"5R6P1","internal_node_id":"0.0-4.0-8.0","time_elapsed":202169,"trial_index":10,"trial_type":"html","url":"../views/src/external/stimulus.html","rt":16533},{"answer":["8"],"block":"linear_testing","helps":0,"clicked":[["answer","clicked"],["A ","false"],["M ","false"],["D ","false"],["N ","false"],["B ","false"],["F ","false"],["H ","false"],["G ","false"],["O ","false"],["C ","false"],["J ","false"],["I ","false"],["E ","false"],["L ","false"],["K ","false"]],"correct":0,"scaffold":"none","question":"starts","scenario":"longmire","graph":"linear","condition":0,"session":"override","experiment":"default","subject":"5R6P1","internal_node_id":"0.0-4.0-5.0","time_elapsed":223646,"trial_index":11,"trial_type":"html","url":"../views/src/external/stimulus.html","rt":20318},{"answer":["C"],"block":"linear_testing","helps":0,"clicked":[["answer","clicked"],["A ","false"],["M ","false"],["D ","false"],["N ","false"],["B ","false"],["F ","false"],["H ","false"],["G ","false"],["O ","false"],["C ","false"],["J ","false"],["I ","false"],["E ","false"],["L ","false"],["K ","false"]],"correct":1,"scaffold":"none","question":"starts+finishes","scenario":"longmire","graph":"linear","condition":0,"session":"override","experiment":"default","subject":"5R6P1","internal_node_id":"0.0-4.0-9.0","time_elapsed":241781,"trial_index":12,"trial_type":"html","url":"../views/src/external/stimulus.html","rt":16969},{"answer":["B","C","D","G","H","J","L","O"],"block":"linear_testing","helps":0,"clicked":[["answer","clicked"],["A ","false"],["M ","false"],["D ","false"],["N ","false"],["B ","false"],["F ","false"],["H ","false"],["G ","false"],["O ","false"],["C ","false"],["J ","false"],["I ","false"],["E ","false"],["L ","false"],["K ","false"]],"correct":0,"scaffold":"none","question":"during","scenario":"longmire","graph":"linear","condition":0,"session":"override","experiment":"default","subject":"5R6P1","internal_node_id":"0.0-4.0-7.0","time_elapsed":295363,"trial_index":13,"trial_type":"html","url":"../views/src/external/stimulus.html","rt":52426},{"answer":["M","N"],"block":"linear_testing","helps":0,"clicked":[["answer","clicked"],["A ","false"],["M ","false"],["D ","false"],["N ","false"],["B ","false"],["F ","false"],["H ","false"],["G ","false"],["O ","false"],["C ","false"],["J ","false"],["I ","false"],["E ","false"],["L ","false"],["K ","false"]],"correct":0,"scaffold":"none","question":"overlap+overlap","scenario":"longmire","graph":"linear","condition":0,"session":"override","experiment":"default","subject":"5R6P1","internal_node_id":"0.0-4.0-2.0","time_elapsed":328856,"trial_index":14,"trial_type":"html","url":"../views/src/external/stimulus.html","rt":32088},{"answer":["B","C","D","I"],"block":"linear_testing","helps":0,"clicked":[["answer","clicked"],["A ","false"],["M ","false"],["D ","false"],["N ","false"],["B ","false"],["F ","false"],["H ","false"],["G ","false"],["O ","false"],["C ","false"],["J ","false"],["I ","false"],["E ","false"],["L ","false"],["K ","false"]],"correct":0,"scaffold":"none","question":"before+overlap","scenario":"longmire","graph":"linear","condition":0,"session":"override","experiment":"default","subject":"5R6P1","internal_node_id":"0.0-4.0-1.0","time_elapsed":353242,"trial_index":15,"trial_type":"html","url":"../views/src/external/stimulus.html","rt":23102},{"answer":["B"],"block":"linear_testing","helps":0,"clicked":[["answer","clicked"],["A ","false"],["M ","false"],["D ","false"],["N ","false"],["B ","false"],["F ","false"],["H ","false"],["G ","false"],["O ","false"],["C ","false"],["J ","false"],["I ","false"],["E ","false"],["L ","false"],["K ","false"]],"correct":0,"scaffold":"none","question":"start+duration","scenario":"longmire","graph":"linear","condition":0,"session":"override","experiment":"default","subject":"5R6P1","internal_node_id":"0.0-4.0-0.0","time_elapsed":373459,"trial_index":16,"trial_type":"html","url":"../views/src/external/stimulus.html","rt":19068},{"answer":["E","K","L"],"block":"linear_testing","helps":0,"clicked":[["answer","clicked"],["A ","false"],["M ","false"],["D ","false"],["N ","false"],["B ","false"],["F ","false"],["H ","false"],["G ","false"],["O ","false"],["C ","false"],["J ","false"],["I ","false"],["E ","false"],["L ","false"],["K ","false"]],"correct":0,"scaffold":"none","question":"during+overlap","scenario":"longmire","graph":"linear","condition":0,"session":"override","experiment":"default","subject":"5R6P1","internal_node_id":"0.0-4.0-3.0","time_elapsed":406903,"trial_index":17,"trial_type":"html","url":"../views/src/external/stimulus.html","rt":32290},{"condition":0,"session":"override","experiment":"default","subject":"5R6P1","internal_node_id":"0.0-5.0","time_elapsed":416981,"trial_index":18,"trial_type":"survey-text","block":"demo-1","responses":"{\"Q0\":\"26\",\"Q1\":\"us\",\"Q2\":\"unemployed\"}","rt":9076},{"condition":0,"session":"override","experiment":"default","subject":"5R6P1","internal_node_id":"0.0-6.0","time_elapsed":440899,"trial_index":19,"trial_type":"survey-multi-choice","block":"demo-2","responses":"{\"Q0\":\"Other\",\"Q1\":\"Graduate\",\"Q2\":\"Social Sciences (incl. CogSci)\",\"Q3\":\"Male\",\"Q4\":\"the first one (linear\"}","rt":22905}],"__v":0}
{"_id":{"$oid":"58b4f6131ee41f0004deb906"},"data":[{"condition":"0","session":"LMNORM1","experiment":"default","subject":"S6Q3O","internal_node_id":"0.0-0.0","time_elapsed":3236,"trial_index":0,"trial_type":"html","block":"instructions_lab","url":"../views/src/external/instructions_turk.html","rt":2814},{"condition":"0","session":"LMNORM1","experiment":"default","subject":"S6Q3O","internal_node_id":"0.0-1.0","time_elapsed":56604,"trial_index":1,"trial_type":"survey-text","block":"codes","responses":"{\"Q0\":\"LMNORM1\",\"Q1\":\"0\",\"Q2\":\"A3AMYG3X8AQJ0N\"}","rt":52323},{"condition":"0","session":"LMNORM1","experiment":"default","subject":"S6Q3O","internal_node_id":"0.0-2.0","time_elapsed":60157,"trial_index":2,"trial_type":"single-stim","block":"scenario-one","key_press":13,"stimulus":"img/longmire.png","rt":2538},{"answer":[],"block":"linear_scaffolded","helps":0,"clicked":[["answer","clicked"],["A ","false"],["M ","false"],["D ","false"],["N ","false"],["B ","false"],["F ","false"],["H ","false"],["G ","false"],["O ","false"],["C ","false"],["J ","false"],["I ","false"],["E ","false"],["L ","false"],["K ","false"]],"correct":0,"scaffold":"none","question":"start","scenario":"longmire","graph":"linear","condition":"0","session":"LMNORM1","experiment":"default","subject":"S6Q3O","internal_node_id":"0.0-3.0-0.0","time_elapsed":64948,"trial_index":3,"trial_type":"html","url":"../views/src/external/stimulus.html","rt":2521},{"answer":["B"],"block":"linear_scaffolded","helps":0,"clicked":[["answer","clicked"],["A ","false"],["M ","false"],["D ","false"],["N ","false"],["B ","false"],["F ","false"],["H ","false"],["G ","false"],["O ","false"],["C ","false"],["J ","false"],["I ","false"],["E ","false"],["L ","false"],["K ","false"]],"correct":0,"scaffold":"none","question":"end","scenario":"longmire","graph":"linear","condition":"0","session":"LMNORM1","experiment":"default","subject":"S6Q3O","internal_node_id":"0.0-3.0-1.0","time_elapsed":70325,"trial_index":4,"trial_type":"html","url":"../views/src/external/stimulus.html","rt":2933},{"answer":["M"],"block":"linear_scaffolded","helps":0,"clicked":[["answer","clicked"],["A ","false"],["M ","false"],["D ","false"],["N ","false"],["B ","false"],["F ","false"],["H ","false"],["G ","false"],["O ","false"],["C ","false"],["J ","false"],["I ","false"],["E ","false"],["L ","false"],["K ","false"]],"correct":0,"scaffold":"none","question":"duration","scenario":"longmire","graph":"linear","condition":"0","session":"LMNORM1","experiment":"default","subject":"S6Q3O","internal_node_id":"0.0-3.0-2.0","time_elapsed":75330,"trial_index":5,"trial_type":"html","url":"../views/src/external/stimulus.html","rt":2379},{"answer":["12"],"block":"linear_scaffolded","helps":0,"clicked":[["answer","clicked"],["A ","false"],["M ","false"],["D ","false"],["N ","false"],["B ","false"],["F ","false"],["H ","false"],["G ","false"],["O ","false"],["C ","false"],["J ","false"],["I ","false"],["E ","false"],["L ","false"],["K ","false"]],"correct":0,"scaffold":"none","question":"midpoint","scenario":"longmire","graph":"linear","condition":"0","session":"LMNORM1","experiment":"default","subject":"S6Q3O","internal_node_id":"0.0-3.0-3.0","time_elapsed":80376,"trial_index":6,"trial_type":"html","url":"../views/src/external/stimulus.html","rt":2320},{"answer":["H"],"block":"linear_scaffolded","helps":0,"clicked":[["answer","clicked"],["A ","false"],["M ","false"],["D ","false"],["N ","false"],["B ","false"],["F ","false"],["H ","false"],["G ","false"],["O ","false"],["C ","false"],["J ","false"],["I ","false"],["E ","false"],["L ","false"],["K ","false"]],"correct":0,"scaffold":"none","question":"start+overlap","scenario":"longmire","graph":"linear","condition":"0","session":"LMNORM1","experiment":"default","subject":"S6Q3O","internal_node_id":"0.0-3.0-4.0","time_elapsed":85494,"trial_index":7,"trial_type":"html","url":"../views/src/external/stimulus.html","rt":2406},{"answer":["H"],"block":"linear_testing","helps":0,"clicked":[["answer","clicked"],["A ","false"],["M ","false"],["D ","false"],["N ","false"],["B ","false"],["F ","false"],["H ","false"],["G ","false"],["O ","false"],["C ","false"],["J ","false"],["I ","false"],["E ","false"],["L ","false"],["K ","false"]],"correct":0,"scaffold":"none","question":"before+overlap","scenario":"longmire","graph":"linear","condition":"0","session":"LMNORM1","experiment":"default","subject":"S6Q3O","internal_node_id":"0.0-4.0-1.0","time_elapsed":90295,"trial_index":8,"trial_type":"html","url":"../views/src/external/stimulus.html","rt":2590},{"answer":["G","L"],"block":"linear_testing","helps":0,"clicked":[["answer","clicked"],["A ","false"],["M ","false"],["D ","false"],["N ","false"],["B ","false"],["F ","false"],["H ","false"],["G ","false"],["O ","false"],["C ","false"],["J ","false"],["I ","false"],["E ","false"],["L ","false"],["K ","false"]],"correct":0,"scaffold":"none","question":"overlap+overlap","scenario":"longmire","graph":"linear","condition":"0","session":"LMNORM1","experiment":"default","subject":"S6Q3O","internal_node_id":"0.0-4.0-2.0","time_elapsed":858162,"trial_index":9,"trial_type":"html","url":"../views/src/external/stimulus.html","rt":765485},{"answer":["3"],"block":"linear_testing","helps":0,"clicked":[["answer","clicked"],["A ","false"],["M ","false"],["D ","false"],["N ","false"],["B ","false"],["F ","false"],["H ","false"],["G ","false"],["O ","false"],["C ","false"],["J ","false"],["I ","false"],["E ","false"],["L ","false"],["K ","false"]],"correct":0,"scaffold":"none","question":"starts","scenario":"longmire","graph":"linear","condition":"0","session":"LMNORM1","experiment":"default","subject":"S6Q3O","internal_node_id":"0.0-4.0-5.0","time_elapsed":888414,"trial_index":10,"trial_type":"html","url":"../views/src/external/stimulus.html","rt":27050},{"answer":["G","L"],"block":"linear_testing","helps":0,"clicked":[["answer","clicked"],["A ","false"],["M ","false"],["D ","false"],["N ","false"],["B ","false"],["F ","false"],["H ","false"],["G ","false"],["O ","false"],["C ","false"],["J ","false"],["I ","false"],["E ","false"],["L ","false"],["K ","false"]],"correct":0,"scaffold":"none","question":"starts+finishes","scenario":"longmire","graph":"linear","condition":"0","session":"LMNORM1","experiment":"default","subject":"S6Q3O","internal_node_id":"0.0-4.0-9.0","time_elapsed":897403,"trial_index":11,"trial_type":"html","url":"../views/src/external/stimulus.html","rt":6658},{"answer":["B","G"],"block":"linear_testing","helps":0,"clicked":[["answer","clicked"],["A ","false"],["M ","false"],["D ","false"],["N ","false"],["B ","false"],["F ","false"],["H ","false"],["G ","false"],["O ","false"],["C ","false"],["J ","false"],["I ","false"],["E ","false"],["L ","false"],["K ","false"]],"correct":0,"scaffold":"none","question":"start+duration","scenario":"longmire","graph":"linear","condition":"0","session":"LMNORM1","experiment":"default","subject":"S6Q3O","internal_node_id":"0.0-4.0-0.0","time_elapsed":1117848,"trial_index":12,"trial_type":"html","url":"../views/src/external/stimulus.html","rt":218135},{"answer":["B","G"],"block":"linear_testing","helps":0,"clicked":[["answer","clicked"],["A ","false"],["M ","false"],["D ","false"],["N ","false"],["B ","false"],["F ","false"],["H ","false"],["G ","false"],["O ","false"],["C ","false"],["J ","false"],["I ","false"],["E ","false"],["L ","false"],["K ","false"]],"correct":0,"scaffold":"none","question":"during","scenario":"longmire","graph":"linear","condition":"0","session":"LMNORM1","experiment":"default","subject":"S6Q3O","internal_node_id":"0.0-4.0-7.0","time_elapsed":1124141,"trial_index":13,"trial_type":"html","url":"../views/src/external/stimulus.html","rt":3230},{"answer":["E","J"],"block":"linear_testing","helps":0,"clicked":[["answer","clicked"],["A ","false"],["M ","false"],["D ","false"],["N ","false"],["B ","false"],["F ","false"],["H ","false"],["G ","false"],["O ","false"],["C ","false"],["J ","false"],["I ","false"],["E ","false"],["L ","false"],["K ","false"]],"correct":0,"scaffold":"none","question":"meets","scenario":"longmire","graph":"linear","condition":"0","session":"LMNORM1","experiment":"default","subject":"S6Q3O","internal_node_id":"0.0-4.0-8.0","time_elapsed":1129534,"trial_index":14,"trial_type":"html","url":"../views/src/external/stimulus.html","rt":2964},{"answer":["D","I"],"block":"linear_testing","helps":0,"clicked":[["answer","clicked"],["A ","false"],["M ","false"],["D ","false"],["N ","false"],["B ","false"],["F ","false"],["H ","false"],["G ","false"],["O ","false"],["C ","false"],["J ","false"],["I ","false"],["E ","false"],["L ","false"],["K ","false"]],"correct":0,"scaffold":"none","question":"during+overlap","scenario":"longmire","graph":"linear","condition":"0","session":"LMNORM1","experiment":"default","subject":"S6Q3O","internal_node_id":"0.0-4.0-3.0","time_elapsed":1134619,"trial_index":15,"trial_type":"html","url":"../views/src/external/stimulus.html","rt":2805},{"answer":["B","O"],"block":"linear_testing","helps":0,"clicked":[["answer","clicked"],["A ","false"],["M ","false"],["D ","false"],["N ","false"],["B ","false"],["F ","false"],["H ","false"],["G ","false"],["O ","false"],["C ","false"],["J ","false"],["I ","false"],["E ","false"],["L ","false"],["K ","false"]],"correct":0,"scaffold":"none","question":"contain+duration","scenario":"longmire","graph":"linear","condition":"0","session":"LMNORM1","experiment":"default","subject":"S6Q3O","internal_node_id":"0.0-4.0-4.0","time_elapsed":1141299,"trial_index":16,"trial_type":"html","url":"../views/src/external/stimulus.html","rt":4382},{"answer":["7","6"],"block":"linear_testing","helps":0,"clicked":[["answer","clicked"],["A ","false"],["M ","false"],["D ","false"],["N ","false"],["B ","false"],["F ","false"],["H ","false"],["G ","false"],["O ","false"],["C ","false"],["J ","false"],["I ","false"],["E ","false"],["L ","false"],["K ","false"]],"correct":0,"scaffold":"none","question":"finishes","scenario":"longmire","graph":"linear","condition":"0","session":"LMNORM1","experiment":"default","subject":"S6Q3O","internal_node_id":"0.0-4.0-6.0","time_elapsed":1147627,"trial_index":17,"trial_type":"html","url":"../views/src/external/stimulus.html","rt":3976},{"condition":"0","session":"LMNORM1","experiment":"default","subject":"S6Q3O","internal_node_id":"0.0-5.0","time_elapsed":1176110,"trial_index":18,"trial_type":"survey-text","block":"demo-1","responses":"{\"Q0\":\"30\",\"Q1\":\"India\",\"Q2\":\"house wife\"}","rt":27465},{"condition":"0","session":"LMNORM1","experiment":"default","subject":"S6Q3O","internal_node_id":"0.0-6.0","time_elapsed":1361347,"trial_index":19,"trial_type":"survey-multi-choice","block":"demo-2","responses":"{\"Q0\":\"Spanish\",\"Q1\":\"First\",\"Q2\":\"Math or Computer Sciences\",\"Q3\":\"Male\",\"Q4\":\"the first one (linear\"}","rt":184165}],"__v":0}
