{"_id":{"$oid":"58b09a07d1b97e0004eb12b7"},"data":[{"condition":"1","session":"purple","experiment":"default","subject":"WUXYY","internal_node_id":"0.0-0.0","time_elapsed":126592,"trial_index":0,"trial_type":"single-stim","block":"phone","key_press":13,"stimulus":"img/phone.png","rt":126583},{"condition":"1","session":"purple","experiment":"default","subject":"WUXYY","internal_node_id":"0.0-1.0","time_elapsed":147421,"trial_index":1,"trial_type":"html","block":"instructions_drawing","url":"../views/src/external/consent.html","rt":19358},{"condition":"1","session":"purple","experiment":"default","subject":"WUXYY","internal_node_id":"0.0-2.0","time_elapsed":155970,"trial_index":2,"trial_type":"survey-text","block":"codes","responses":"{\"Q0\":\"purple\",\"Q1\":\"1\"}","rt":7539},{"condition":"1","session":"purple","experiment":"default","subject":"WUXYY","internal_node_id":"0.0-3.0","time_elapsed":166199,"trial_index":3,"trial_type":"html","block":"instructions_lab","url":"../views/src/external/instructions_lab.html","rt":9137},{"condition":"1","session":"purple","experiment":"default","subject":"WUXYY","internal_node_id":"0.0-4.0","time_elapsed":180410,"trial_index":4,"trial_type":"single-stim","block":"scenario-one","key_press":13,"stimulus":"img/longmire.png","rt":13208},{"block":"linear_scaffolded","helps":0,"clicked":[["answer","clicked"],["A ","false"],["M ","false"],["D ","false"],["N ","false"],["B ","false"],["F ","false"],["H ","false"],["G ","false"],["O ","false"],["C ","false"],["J ","false"],["I ","false"],["E ","false"],["L ","false"],["K ","false"]],"correct":1,"scaffold":"describe-what","question":"start","scenario":"longmire","graph":"linear","condition":"1","session":"purple","experiment":"default","subject":"WUXYY","internal_node_id":"0.0-5.0-0.0","time_elapsed":203091,"trial_index":5,"trial_type":"html","url":"../views/src/external/stimulus.html","rt":21232},{"block":"linear_scaffolded","helps":0,"clicked":[["answer","clicked"],["A ","false"],["M ","false"],["D ","false"],["N ","false"],["B ","false"],["F ","false"],["H ","false"],["G ","false"],["O ","false"],["C ","false"],["J ","false"],["I ","false"],["E ","false"],["L ","false"],["K ","false"]],"correct":1,"scaffold":"describe-what","question":"end","scenario":"longmire","graph":"linear","condition":"1","session":"purple","experiment":"default","subject":"WUXYY","internal_node_id":"0.0-5.0-1.0","time_elapsed":245553,"trial_index":6,"trial_type":"html","url":"../views/src/external/stimulus.html","rt":41188},{"block":"linear_scaffolded","helps":0,"clicked":[["answer","clicked"],["A ","false"],["M ","false"],["D ","false"],["N ","false"],["B ","false"],["F ","false"],["H ","false"],["G ","false"],["O ","false"],["C ","false"],["J ","false"],["I ","false"],["E ","false"],["L ","false"],["K ","false"]],"correct":0,"scaffold":"describe-what","question":"duration","scenario":"longmire","graph":"linear","condition":"1","session":"purple","experiment":"default","subject":"WUXYY","internal_node_id":"0.0-5.0-2.0","time_elapsed":291560,"trial_index":7,"trial_type":"html","url":"../views/src/external/stimulus.html","rt":44719},{"block":"linear_scaffolded","helps":0,"clicked":[["answer","clicked"],["A ","false"],["M ","false"],["D ","false"],["N ","false"],["B ","false"],["F ","false"],["H ","false"],["G ","false"],["O ","false"],["C ","false"],["J ","false"],["I ","false"],["E ","false"],["L ","false"],["K ","false"]],"correct":1,"scaffold":"describe-what","question":"midpoint","scenario":"longmire","graph":"linear","condition":"1","session":"purple","experiment":"default","subject":"WUXYY","internal_node_id":"0.0-5.0-3.0","time_elapsed":313307,"trial_index":8,"trial_type":"html","url":"../views/src/external/stimulus.html","rt":20442},{"block":"linear_scaffolded","helps":0,"clicked":[["answer","clicked"],["A ","false"],["M ","false"],["D ","false"],["N ","false"],["B ","false"],["F ","false"],["H ","false"],["G ","false"],["O ","false"],["C ","false"],["J ","false"],["I ","false"],["E ","false"],["L ","false"],["K ","false"]],"correct":1,"scaffold":"describe-what","question":"start+overlap","scenario":"longmire","graph":"linear","condition":"1","session":"purple","experiment":"default","subject":"WUXYY","internal_node_id":"0.0-5.0-4.0","time_elapsed":330451,"trial_index":9,"trial_type":"html","url":"../views/src/external/stimulus.html","rt":15847},{"block":"linear_testing","helps":0,"clicked":[["answer","clicked"],["A ","false"],["M ","false"],["D ","false"],["N ","false"],["B ","false"],["F ","false"],["H ","false"],["G ","false"],["O ","false"],["C ","false"],["J ","false"],["I ","false"],["E ","false"],["L ","false"],["K ","false"]],"correct":1,"scaffold":"none","question":"meets","scenario":"longmire","graph":"linear","condition":"1","session":"purple","experiment":"default","subject":"WUXYY","internal_node_id":"0.0-6.0-8.0","time_elapsed":348050,"trial_index":10,"trial_type":"html","url":"../views/src/external/stimulus.html","rt":16329},{"block":"linear_testing","helps":0,"clicked":[["answer","clicked"],["A ","false"],["M ","false"],["D ","false"],["N ","false"],["B ","false"],["F ","false"],["H ","false"],["G ","false"],["O ","false"],["C ","false"],["J ","false"],["I ","false"],["E ","false"],["L ","false"],["K ","false"]],"correct":1,"scaffold":"none","question":"before+overlap","scenario":"longmire","graph":"linear","condition":"1","session":"purple","experiment":"default","subject":"WUXYY","internal_node_id":"0.0-6.0-1.0","time_elapsed":385291,"trial_index":11,"trial_type":"html","url":"../views/src/external/stimulus.html","rt":35963},{"block":"linear_testing","helps":0,"clicked":[["answer","clicked"],["A ","false"],["M ","false"],["D ","false"],["N ","false"],["B ","false"],["F ","false"],["H ","false"],["G ","false"],["O ","false"],["C ","false"],["J ","false"],["I ","false"],["E ","false"],["L ","false"],["K ","false"]],"correct":0,"scaffold":"none","question":"starts+finishes","scenario":"longmire","graph":"linear","condition":"1","session":"purple","experiment":"default","subject":"WUXYY","internal_node_id":"0.0-6.0-9.0","time_elapsed":456978,"trial_index":12,"trial_type":"html","url":"../views/src/external/stimulus.html","rt":70392},{"block":"linear_testing","helps":0,"clicked":[["answer","clicked"],["A ","false"],["M ","false"],["D ","false"],["N ","false"],["B ","false"],["F ","false"],["H ","false"],["G ","false"],["O ","false"],["C ","false"],["J ","false"],["I ","false"],["E ","false"],["L ","false"],["K ","false"]],"correct":1,"scaffold":"none","question":"start+duration","scenario":"longmire","graph":"linear","condition":"1","session":"purple","experiment":"default","subject":"WUXYY","internal_node_id":"0.0-6.0-0.0","time_elapsed":477816,"trial_index":13,"trial_type":"html","url":"../views/src/external/stimulus.html","rt":19280},{"block":"linear_testing","helps":0,"clicked":[["answer","clicked"],["A ","false"],["M ","false"],["D ","false"],["N ","false"],["B ","false"],["F ","false"],["H ","false"],["G ","false"],["O ","false"],["C ","false"],["J ","false"],["I ","false"],["E ","false"],["L ","false"],["K ","false"]],"correct":1,"scaffold":"none","question":"starts","scenario":"longmire","graph":"linear","condition":"1","session":"purple","experiment":"default","subject":"WUXYY","internal_node_id":"0.0-6.0-5.0","time_elapsed":508831,"trial_index":14,"trial_type":"html","url":"../views/src/external/stimulus.html","rt":29746},{"block":"linear_testing","helps":0,"clicked":[["answer","clicked"],["A ","false"],["M ","false"],["D ","false"],["N ","false"],["B ","false"],["F ","false"],["H ","false"],["G ","false"],["O ","false"],["C ","false"],["J ","false"],["I ","false"],["E ","false"],["L ","false"],["K ","false"]],"correct":1,"scaffold":"none","question":"overlap+overlap","scenario":"longmire","graph":"linear","condition":"1","session":"purple","experiment":"default","subject":"WUXYY","internal_node_id":"0.0-6.0-2.0","time_elapsed":535990,"trial_index":15,"trial_type":"html","url":"../views/src/external/stimulus.html","rt":25887},{"block":"linear_testing","helps":0,"clicked":[["answer","clicked"],["A ","false"],["M ","false"],["D ","false"],["N ","false"],["B ","false"],["F ","false"],["H ","false"],["G ","false"],["O ","false"],["C ","false"],["J ","false"],["I ","false"],["E ","false"],["L ","false"],["K ","false"]],"correct":1,"scaffold":"none","question":"finishes","scenario":"longmire","graph":"linear","condition":"1","session":"purple","experiment":"default","subject":"WUXYY","internal_node_id":"0.0-6.0-6.0","time_elapsed":569209,"trial_index":16,"trial_type":"html","url":"../views/src/external/stimulus.html","rt":31956},{"block":"linear_testing","helps":0,"clicked":[["answer","clicked"],["A ","false"],["M ","false"],["D ","false"],["N ","false"],["B ","false"],["F ","false"],["H ","false"],["G ","false"],["O ","false"],["C ","false"],["J ","false"],["I ","false"],["E ","false"],["L ","false"],["K ","false"]],"correct":1,"scaffold":"none","question":"during+overlap","scenario":"longmire","graph":"linear","condition":"1","session":"purple","experiment":"default","subject":"WUXYY","internal_node_id":"0.0-6.0-3.0","time_elapsed":609530,"trial_index":17,"trial_type":"html","url":"../views/src/external/stimulus.html","rt":39056},{"block":"linear_testing","helps":0,"clicked":[["answer","clicked"],["A ","false"],["M ","false"],["D ","false"],["N ","false"],["B ","false"],["F ","false"],["H ","false"],["G ","false"],["O ","false"],["C ","false"],["J ","false"],["I ","false"],["E ","false"],["L ","false"],["K ","false"]],"correct":0,"scaffold":"none","question":"during","scenario":"longmire","graph":"linear","condition":"1","session":"purple","experiment":"default","subject":"WUXYY","internal_node_id":"0.0-6.0-7.0","time_elapsed":669076,"trial_index":18,"trial_type":"html","url":"../views/src/external/stimulus.html","rt":58283},{"block":"linear_testing","helps":0,"clicked":[["answer","clicked"],["A ","false"],["M ","false"],["D ","false"],["N ","false"],["B ","false"],["F ","false"],["H ","false"],["G ","false"],["O ","false"],["C ","false"],["J ","false"],["I ","false"],["E ","false"],["L ","false"],["K ","false"]],"correct":1,"scaffold":"none","question":"contain+duration","scenario":"longmire","graph":"linear","condition":"1","session":"purple","experiment":"default","subject":"WUXYY","internal_node_id":"0.0-6.0-4.0","time_elapsed":692581,"trial_index":19,"trial_type":"html","url":"../views/src/external/stimulus.html","rt":22226},{"condition":"1","session":"purple","experiment":"default","subject":"WUXYY","internal_node_id":"0.0-7.0","time_elapsed":705747,"trial_index":20,"trial_type":"single-stim","block":"scenario-two","key_press":13,"stimulus":"img/axis.png","rt":12160},{"block":"triangular_scaffolded","helps":0,"clicked":[["answer","clicked"],["M ","false"],["B ","false"],["J ","false"],["N ","false"],["D ","false"],["O ","false"],["K ","false"],["C ","false"],["F ","false"],["I ","false"],["H ","false"],["G ","false"],["L ","false"],["E ","false"],["A ","false"]],"correct":0,"scaffold":"describe-what","question":"start","scenario":"axis","graph":"triangular","condition":"1","session":"purple","experiment":"default","subject":"WUXYY","internal_node_id":"0.0-8.0-0.0","time_elapsed":722749,"trial_index":21,"trial_type":"html","url":"../views/src/external/stimulus.html","rt":15741},{"block":"triangular_scaffolded","helps":0,"clicked":[["answer","clicked"],["M ","false"],["B ","false"],["J ","false"],["N ","false"],["D ","false"],["O ","false"],["K ","false"],["C ","false"],["F ","false"],["I ","false"],["H ","false"],["G ","false"],["L ","false"],["E ","false"],["A ","false"]],"correct":1,"scaffold":"describe-what","question":"end","scenario":"axis","graph":"triangular","condition":"1","session":"purple","experiment":"default","subject":"WUXYY","internal_node_id":"0.0-8.0-1.0","time_elapsed":805868,"trial_index":22,"trial_type":"html","url":"../views/src/external/stimulus.html","rt":81850},{"block":"triangular_scaffolded","helps":0,"clicked":[["answer","clicked"],["M ","false"],["B ","false"],["J ","false"],["N ","false"],["D ","false"],["O ","false"],["K ","false"],["C ","false"],["F ","false"],["I ","false"],["H ","false"],["G ","false"],["L ","false"],["E ","false"],["A ","false"]],"correct":1,"scaffold":"describe-what","question":"duration","scenario":"axis","graph":"triangular","condition":"1","session":"purple","experiment":"default","subject":"WUXYY","internal_node_id":"0.0-8.0-2.0","time_elapsed":841492,"trial_index":23,"trial_type":"html","url":"../views/src/external/stimulus.html","rt":34039},{"block":"triangular_scaffolded","helps":0,"clicked":[["answer","clicked"],["M ","false"],["B ","false"],["J ","false"],["N ","false"],["D ","false"],["O ","false"],["K ","false"],["C ","false"],["F ","false"],["I ","false"],["H ","false"],["G ","false"],["L ","false"],["E ","false"],["A ","false"]],"correct":1,"scaffold":"describe-what","question":"midpoint","scenario":"axis","graph":"triangular","condition":"1","session":"purple","experiment":"default","subject":"WUXYY","internal_node_id":"0.0-8.0-3.0","time_elapsed":866566,"trial_index":24,"trial_type":"html","url":"../views/src/external/stimulus.html","rt":23800},{"block":"triangular_scaffolded","helps":0,"clicked":[["answer","clicked"],["M ","false"],["B ","false"],["J ","false"],["N ","false"],["D ","false"],["O ","false"],["K ","false"],["C ","false"],["F ","false"],["I ","false"],["H ","false"],["G ","false"],["L ","false"],["E ","false"],["A ","false"]],"correct":0,"scaffold":"describe-what","question":"start+overlap","scenario":"axis","graph":"triangular","condition":"1","session":"purple","experiment":"default","subject":"WUXYY","internal_node_id":"0.0-8.0-4.0","time_elapsed":909278,"trial_index":25,"trial_type":"html","url":"../views/src/external/stimulus.html","rt":41434},{"block":"triangular_testing","helps":0,"clicked":[["answer","clicked"],["M ","false"],["B ","false"],["J ","false"],["N ","false"],["D ","false"],["O ","false"],["K ","false"],["C ","false"],["F ","false"],["I ","false"],["H ","false"],["G ","false"],["L ","false"],["E ","false"],["A ","false"]],"correct":1,"scaffold":"none","question":"contain+duration","scenario":"axis","graph":"triangular","condition":"1","session":"purple","experiment":"default","subject":"WUXYY","internal_node_id":"0.0-9.0-4.0","time_elapsed":947330,"trial_index":26,"trial_type":"html","url":"../views/src/external/stimulus.html","rt":36769},{"block":"triangular_testing","helps":0,"clicked":[["answer","clicked"],["M ","false"],["B ","false"],["J ","false"],["N ","false"],["D ","false"],["O ","false"],["K ","false"],["C ","false"],["F ","false"],["I ","false"],["H ","false"],["G ","false"],["L ","false"],["E ","false"],["A ","false"]],"correct":0,"scaffold":"none","question":"overlap+overlap","scenario":"axis","graph":"triangular","condition":"1","session":"purple","experiment":"default","subject":"WUXYY","internal_node_id":"0.0-9.0-2.0","time_elapsed":1020411,"trial_index":27,"trial_type":"html","url":"../views/src/external/stimulus.html","rt":71798},{"block":"triangular_testing","helps":0,"clicked":[["answer","clicked"],["M ","false"],["B ","false"],["J ","false"],["N ","false"],["D ","false"],["O ","false"],["K ","false"],["C ","false"],["F ","false"],["I ","false"],["H ","false"],["G ","false"],["L ","false"],["E ","false"],["A ","false"]],"correct":1,"scaffold":"none","question":"finishes","scenario":"axis","graph":"triangular","condition":"1","session":"purple","experiment":"default","subject":"WUXYY","internal_node_id":"0.0-9.0-6.0","time_elapsed":1032637,"trial_index":28,"trial_type":"html","url":"../views/src/external/stimulus.html","rt":10649},{"block":"triangular_testing","helps":0,"clicked":[["answer","clicked"],["M ","false"],["B ","false"],["J ","false"],["N ","false"],["D ","false"],["O ","false"],["K ","false"],["C ","false"],["F ","false"],["I ","false"],["H ","false"],["G ","false"],["L ","false"],["E ","false"],["A ","false"]],"correct":1,"scaffold":"none","question":"starts+finishes","scenario":"axis","graph":"triangular","condition":"1","session":"purple","experiment":"default","subject":"WUXYY","internal_node_id":"0.0-9.0-9.0","time_elapsed":1066478,"trial_index":29,"trial_type":"html","url":"../views/src/external/stimulus.html","rt":32569},{"block":"triangular_testing","helps":0,"clicked":[["answer","clicked"],["M ","false"],["B ","false"],["J ","false"],["N ","false"],["D ","false"],["O ","false"],["K ","false"],["C ","false"],["F ","false"],["I ","false"],["H ","false"],["G ","false"],["L ","false"],["E ","false"],["A ","false"]],"correct":1,"scaffold":"none","question":"during","scenario":"axis","graph":"triangular","condition":"1","session":"purple","experiment":"default","subject":"WUXYY","internal_node_id":"0.0-9.0-7.0","time_elapsed":1084783,"trial_index":30,"trial_type":"html","url":"../views/src/external/stimulus.html","rt":17022},{"block":"triangular_testing","helps":0,"clicked":[["answer","clicked"],["M ","false"],["B ","false"],["J ","false"],["N ","false"],["D ","false"],["O ","false"],["K ","false"],["C ","false"],["F ","false"],["I ","false"],["H ","false"],["G ","false"],["L ","false"],["E ","false"],["A ","false"]],"correct":0,"scaffold":"none","question":"before+overlap","scenario":"axis","graph":"triangular","condition":"1","session":"purple","experiment":"default","subject":"WUXYY","internal_node_id":"0.0-9.0-1.0","time_elapsed":1127273,"trial_index":31,"trial_type":"html","url":"../views/src/external/stimulus.html","rt":41123},{"block":"triangular_testing","helps":0,"clicked":[["answer","clicked"],["M ","false"],["B ","false"],["J ","false"],["N ","false"],["D ","false"],["O ","false"],["K ","false"],["C ","false"],["F ","false"],["I ","false"],["H ","false"],["G ","false"],["L ","false"],["E ","false"],["A ","false"]],"correct":1,"scaffold":"none","question":"during+overlap","scenario":"axis","graph":"triangular","condition":"1","session":"purple","experiment":"default","subject":"WUXYY","internal_node_id":"0.0-9.0-3.0","time_elapsed":1159465,"trial_index":32,"trial_type":"html","url":"../views/src/external/stimulus.html","rt":30922},{"block":"triangular_testing","helps":0,"clicked":[["answer","clicked"],["M ","false"],["B ","false"],["J ","false"],["N ","false"],["D ","false"],["O ","false"],["K ","false"],["C ","false"],["F ","false"],["I ","false"],["H ","false"],["G ","false"],["L ","false"],["E ","false"],["A ","false"]],"correct":1,"scaffold":"none","question":"start+duration","scenario":"axis","graph":"triangular","condition":"1","session":"purple","experiment":"default","subject":"WUXYY","internal_node_id":"0.0-9.0-0.0","time_elapsed":1183300,"trial_index":33,"trial_type":"html","url":"../views/src/external/stimulus.html","rt":22573},{"block":"triangular_testing","helps":0,"clicked":[["answer","clicked"],["M ","false"],["B ","false"],["J ","false"],["N ","false"],["D ","false"],["O ","false"],["K ","false"],["C ","false"],["F ","false"],["I ","false"],["H ","false"],["G ","false"],["L ","false"],["E ","false"],["A ","false"]],"correct":1,"scaffold":"none","question":"starts","scenario":"axis","graph":"triangular","condition":"1","session":"purple","experiment":"default","subject":"WUXYY","internal_node_id":"0.0-9.0-5.0","time_elapsed":1200686,"trial_index":34,"trial_type":"html","url":"../views/src/external/stimulus.html","rt":16116},{"block":"triangular_testing","helps":0,"clicked":[["answer","clicked"],["M ","false"],["B ","false"],["J ","false"],["N ","false"],["D ","false"],["O ","false"],["K ","false"],["C ","false"],["F ","false"],["I ","false"],["H ","false"],["G ","false"],["L ","false"],["E ","false"],["A ","false"]],"correct":0,"scaffold":"none","question":"meets","scenario":"axis","graph":"triangular","condition":"1","session":"purple","experiment":"default","subject":"WUXYY","internal_node_id":"0.0-9.0-8.0","time_elapsed":1243743,"trial_index":35,"trial_type":"html","url":"../views/src/external/stimulus.html","rt":41784},{"condition":"1","session":"purple","experiment":"default","subject":"WUXYY","internal_node_id":"0.0-10.0","time_elapsed":1269267,"trial_index":36,"trial_type":"single-stim","block":"scenario-draw","key_press":13,"stimulus":"img/jones.png","rt":24520},{"condition":"1","session":"purple","experiment":"default","subject":"WUXYY","internal_node_id":"0.0-11.0","time_elapsed":1857832,"trial_index":37,"trial_type":"html","block":"instructions_drawing","url":"../views/src/external/instructions_draw.html","rt":587441},{"block":"drawingTest","clicked":[["answer","clicked"]],"correct":1,"scaffold":"none","question":"duration","scenario":"jones","graph":"none","condition":"1","session":"purple","experiment":"default","subject":"WUXYY","internal_node_id":"0.0-12.0","time_elapsed":1928037,"trial_index":38,"trial_type":"html","url":"../views/src/external/stimulus.html","rt":68633},{"block":"drawingTest","clicked":[["answer","clicked"]],"correct":1,"scaffold":"none","question":"overlap","scenario":"jones","graph":"none","condition":"1","session":"purple","experiment":"default","subject":"WUXYY","internal_node_id":"0.0-13.0","time_elapsed":1961778,"trial_index":39,"trial_type":"html","url":"../views/src/external/stimulus.html","rt":32049},{"condition":"1","session":"purple","experiment":"default","subject":"WUXYY","internal_node_id":"0.0-14.0","time_elapsed":1973580,"trial_index":40,"trial_type":"survey-text","block":"demo-1","responses":"{\"Q0\":\"20\",\"Q1\":\"United States of America\"}","rt":10794},{"condition":"1","session":"purple","experiment":"default","subject":"WUXYY","internal_node_id":"0.0-15.0","time_elapsed":1990073,"trial_index":41,"trial_type":"survey-multi-choice","block":"demo-2","responses":"{\"Q0\":\"English\",\"Q1\":\"Third\",\"Q2\":\"Biomedical \u0026 Health Sciences\",\"Q3\":\"Female\",\"Q4\":\"the second one (triangular)\"}","rt":15475},{"condition":"1","session":"purple","experiment":"default","subject":"WUXYY","internal_node_id":"0.0-16.0","time_elapsed":2005633,"trial_index":42,"trial_type":"html","block":"debrief","url":"../views/src/external/debrief.html","rt":14206}],"__v":0}
{"_id":{"$oid":"58b09aeed1b97e0004eb12b8"},"data":[{"condition":"2","session":"purple","experiment":"default","subject":"APJ3Z","internal_node_id":"0.0-0.0","time_elapsed":109756,"trial_index":0,"trial_type":"single-stim","block":"phone","key_press":13,"stimulus":"img/phone.png","rt":109752},{"condition":"2","session":"purple","experiment":"default","subject":"APJ3Z","internal_node_id":"0.0-1.0","time_elapsed":123577,"trial_index":1,"trial_type":"html","block":"instructions_drawing","url":"../views/src/external/consent.html","rt":12321},{"condition":"2","session":"purple","experiment":"default","subject":"APJ3Z","internal_node_id":"0.0-2.0","time_elapsed":132806,"trial_index":2,"trial_type":"survey-text","block":"codes","responses":"{\"Q0\":\"purple\",\"Q1\":\"2\"}","rt":8217},{"condition":"2","session":"purple","experiment":"default","subject":"APJ3Z","internal_node_id":"0.0-3.0","time_elapsed":143008,"trial_index":3,"trial_type":"html","block":"instructions_lab","url":"../views/src/external/instructions_lab.html","rt":9100},{"condition":"2","session":"purple","experiment":"default","subject":"APJ3Z","internal_node_id":"0.0-4.0","time_elapsed":154773,"trial_index":4,"trial_type":"single-stim","block":"scenario-one","key_press":13,"stimulus":"img/longmire.png","rt":10762},{"block":"linear_scaffolded","helps":0,"clicked":[["answer","clicked"],["A ","false"],["M ","false"],["D ","false"],["N ","false"],["B ","false"],["F ","false"],["H ","false"],["G ","false"],["O ","false"],["C ","false"],["J ","false"],["I ","false"],["E ","false"],["L ","false"],["K ","false"]],"correct":1,"scaffold":"describe-how","question":"start","scenario":"longmire","graph":"linear","condition":"2","session":"purple","experiment":"default","subject":"APJ3Z","internal_node_id":"0.0-5.0-0.0","time_elapsed":177200,"trial_index":5,"trial_type":"html","url":"../views/src/external/stimulus.html","rt":21071},{"block":"linear_scaffolded","helps":0,"clicked":[["answer","clicked"],["A ","false"],["M ","false"],["D ","false"],["N ","false"],["B ","false"],["F ","false"],["H ","false"],["G ","false"],["O ","false"],["C ","false"],["J ","false"],["I ","false"],["E ","false"],["L ","false"],["K ","false"]],"correct":0,"scaffold":"describe-how","question":"end","scenario":"longmire","graph":"linear","condition":"2","session":"purple","experiment":"default","subject":"APJ3Z","internal_node_id":"0.0-5.0-1.0","time_elapsed":208476,"trial_index":6,"trial_type":"html","url":"../views/src/external/stimulus.html","rt":30007},{"block":"linear_scaffolded","helps":0,"clicked":[["answer","clicked"],["A ","false"],["M ","false"],["D ","false"],["N ","false"],["B ","false"],["F ","false"],["H ","false"],["G ","false"],["O ","false"],["C ","false"],["J ","false"],["I ","false"],["E ","false"],["L ","false"],["K ","false"]],"correct":1,"scaffold":"describe-how","question":"duration","scenario":"longmire","graph":"linear","condition":"2","session":"purple","experiment":"default","subject":"APJ3Z","internal_node_id":"0.0-5.0-2.0","time_elapsed":270743,"trial_index":7,"trial_type":"html","url":"../views/src/external/stimulus.html","rt":60991},{"block":"linear_scaffolded","helps":0,"clicked":[["answer","clicked"],["A ","false"],["M ","false"],["D ","false"],["N ","false"],["B ","false"],["F ","false"],["H ","false"],["G ","false"],["O ","false"],["C ","false"],["J ","false"],["I ","false"],["E ","false"],["L ","false"],["K ","false"]],"correct":1,"scaffold":"describe-how","question":"midpoint","scenario":"longmire","graph":"linear","condition":"2","session":"purple","experiment":"default","subject":"APJ3Z","internal_node_id":"0.0-5.0-3.0","time_elapsed":296950,"trial_index":8,"trial_type":"html","url":"../views/src/external/stimulus.html","rt":24598},{"block":"linear_scaffolded","helps":0,"clicked":[["answer","clicked"],["A ","false"],["M ","false"],["D ","false"],["N ","false"],["B ","false"],["F ","false"],["H ","false"],["G ","false"],["O ","false"],["C ","false"],["J ","false"],["I ","false"],["E ","false"],["L ","false"],["K ","false"]],"correct":1,"scaffold":"describe-how","question":"start+overlap","scenario":"longmire","graph":"linear","condition":"2","session":"purple","experiment":"default","subject":"APJ3Z","internal_node_id":"0.0-5.0-4.0","time_elapsed":317636,"trial_index":9,"trial_type":"html","url":"../views/src/external/stimulus.html","rt":19397},{"block":"linear_testing","helps":0,"clicked":[["answer","clicked"],["A ","false"],["M ","false"],["D ","false"],["N ","false"],["B ","false"],["F ","false"],["H ","false"],["G ","false"],["O ","false"],["C ","false"],["J ","false"],["I ","false"],["E ","false"],["L ","false"],["K ","false"]],"correct":0,"scaffold":"none","question":"overlap+overlap","scenario":"longmire","graph":"linear","condition":"2","session":"purple","experiment":"default","subject":"APJ3Z","internal_node_id":"0.0-6.0-2.0","time_elapsed":364253,"trial_index":10,"trial_type":"html","url":"../views/src/external/stimulus.html","rt":45346},{"block":"linear_testing","helps":0,"clicked":[["answer","clicked"],["A ","false"],["M ","false"],["D ","false"],["N ","false"],["B ","false"],["F ","false"],["H ","false"],["G ","false"],["O ","false"],["C ","false"],["J ","false"],["I ","false"],["E ","false"],["L ","false"],["K ","false"]],"correct":1,"scaffold":"none","question":"starts+finishes","scenario":"longmire","graph":"linear","condition":"2","session":"purple","experiment":"default","subject":"APJ3Z","internal_node_id":"0.0-6.0-9.0","time_elapsed":390762,"trial_index":11,"trial_type":"html","url":"../views/src/external/stimulus.html","rt":25228},{"block":"linear_testing","helps":0,"clicked":[["answer","clicked"],["A ","false"],["M ","false"],["D ","false"],["N ","false"],["B ","false"],["F ","false"],["H ","false"],["G ","false"],["O ","false"],["C ","false"],["J ","false"],["I ","false"],["E ","false"],["L ","false"],["K ","false"]],"correct":1,"scaffold":"none","question":"during","scenario":"longmire","graph":"linear","condition":"2","session":"purple","experiment":"default","subject":"APJ3Z","internal_node_id":"0.0-6.0-7.0","time_elapsed":520667,"trial_index":12,"trial_type":"html","url":"../views/src/external/stimulus.html","rt":128628},{"block":"linear_testing","helps":0,"clicked":[["answer","clicked"],["A ","false"],["M ","false"],["D ","false"],["N ","false"],["B ","false"],["F ","false"],["H ","false"],["G ","false"],["O ","false"],["C ","false"],["J ","false"],["I ","false"],["E ","false"],["L ","false"],["K ","false"]],"correct":0,"scaffold":"none","question":"before+overlap","scenario":"longmire","graph":"linear","condition":"2","session":"purple","experiment":"default","subject":"APJ3Z","internal_node_id":"0.0-6.0-1.0","time_elapsed":568357,"trial_index":13,"trial_type":"html","url":"../views/src/external/stimulus.html","rt":46065},{"block":"linear_testing","helps":0,"clicked":[["answer","clicked"],["A ","false"],["M ","false"],["D ","false"],["N ","false"],["B ","false"],["F ","false"],["H ","false"],["G ","false"],["O ","false"],["C ","false"],["J ","false"],["I ","false"],["E ","false"],["L ","false"],["K ","false"]],"correct":1,"scaffold":"none","question":"meets","scenario":"longmire","graph":"linear","condition":"2","session":"purple","experiment":"default","subject":"APJ3Z","internal_node_id":"0.0-6.0-8.0","time_elapsed":590573,"trial_index":14,"trial_type":"html","url":"../views/src/external/stimulus.html","rt":20947},{"block":"linear_testing","helps":0,"clicked":[["answer","clicked"],["A ","false"],["M ","false"],["D ","false"],["N ","false"],["B ","false"],["F ","false"],["H ","false"],["G ","false"],["O ","false"],["C ","false"],["J ","false"],["I ","false"],["E ","false"],["L ","false"],["K ","false"]],"correct":1,"scaffold":"none","question":"contain+duration","scenario":"longmire","graph":"linear","condition":"2","session":"purple","experiment":"default","subject":"APJ3Z","internal_node_id":"0.0-6.0-4.0","time_elapsed":628727,"trial_index":15,"trial_type":"html","url":"../views/src/external/stimulus.html","rt":36883},{"block":"linear_testing","helps":0,"clicked":[["answer","clicked"],["A ","false"],["M ","false"],["D ","false"],["N ","false"],["B ","false"],["F ","false"],["H ","false"],["G ","false"],["O ","false"],["C ","false"],["J ","false"],["I ","false"],["E ","false"],["L ","false"],["K ","false"]],"correct":0,"scaffold":"none","question":"starts","scenario":"longmire","graph":"linear","condition":"2","session":"purple","experiment":"default","subject":"APJ3Z","internal_node_id":"0.0-6.0-5.0","time_elapsed":687109,"trial_index":16,"trial_type":"html","url":"../views/src/external/stimulus.html","rt":57107},{"block":"linear_testing","helps":0,"clicked":[["answer","clicked"],["A ","false"],["M ","false"],["D ","false"],["N ","false"],["B ","false"],["F ","false"],["H ","false"],["G ","false"],["O ","false"],["C ","false"],["J ","false"],["I ","false"],["E ","false"],["L ","false"],["K ","false"]],"correct":1,"scaffold":"none","question":"during+overlap","scenario":"longmire","graph":"linear","condition":"2","session":"purple","experiment":"default","subject":"APJ3Z","internal_node_id":"0.0-6.0-3.0","time_elapsed":736214,"trial_index":17,"trial_type":"html","url":"../views/src/external/stimulus.html","rt":47826},{"block":"linear_testing","helps":0,"clicked":[["answer","clicked"],["A ","false"],["M ","false"],["D ","false"],["N ","false"],["B ","false"],["F ","false"],["H ","false"],["G ","false"],["O ","false"],["C ","false"],["J ","false"],["I ","false"],["E ","false"],["L ","false"],["K ","false"]],"correct":1,"scaffold":"none","question":"start+duration","scenario":"longmire","graph":"linear","condition":"2","session":"purple","experiment":"default","subject":"APJ3Z","internal_node_id":"0.0-6.0-0.0","time_elapsed":775758,"trial_index":18,"trial_type":"html","url":"../views/src/external/stimulus.html","rt":38275},{"block":"linear_testing","helps":0,"clicked":[["answer","clicked"],["A ","false"],["M ","false"],["D ","false"],["N ","false"],["B ","false"],["F ","false"],["H ","false"],["G ","false"],["O ","false"],["C ","false"],["J ","false"],["I ","false"],["E ","false"],["L ","false"],["K ","false"]],"correct":1,"scaffold":"none","question":"finishes","scenario":"longmire","graph":"linear","condition":"2","session":"purple","experiment":"default","subject":"APJ3Z","internal_node_id":"0.0-6.0-6.0","time_elapsed":823631,"trial_index":19,"trial_type":"html","url":"../views/src/external/stimulus.html","rt":46592},{"condition":"2","session":"purple","experiment":"default","subject":"APJ3Z","internal_node_id":"0.0-7.0","time_elapsed":841943,"trial_index":20,"trial_type":"single-stim","block":"scenario-two","key_press":13,"stimulus":"img/axis.png","rt":17307},{"block":"triangular_scaffolded","helps":0,"clicked":[["answer","clicked"],["M ","false"],["B ","false"],["J ","false"],["N ","false"],["D ","false"],["O ","false"],["K ","false"],["C ","false"],["F ","false"],["I ","false"],["H ","false"],["G ","false"],["L ","false"],["E ","false"],["A ","false"]],"correct":0,"scaffold":"describe-how","question":"start","scenario":"axis","graph":"triangular","condition":"2","session":"purple","experiment":"default","subject":"APJ3Z","internal_node_id":"0.0-8.0-0.0","time_elapsed":857843,"trial_index":21,"trial_type":"html","url":"../views/src/external/stimulus.html","rt":14632},{"block":"triangular_scaffolded","helps":0,"clicked":[["answer","clicked"],["M ","false"],["B ","false"],["J ","false"],["N ","false"],["D ","false"],["O ","false"],["K ","false"],["C ","false"],["F ","false"],["I ","false"],["H ","false"],["G ","true"],["L ","false"],["E ","false"],["A ","false"]],"correct":0,"scaffold":"describe-how","question":"end","scenario":"axis","graph":"triangular","condition":"2","session":"purple","experiment":"default","subject":"APJ3Z","internal_node_id":"0.0-8.0-1.0","time_elapsed":912089,"trial_index":22,"trial_type":"html","url":"../views/src/external/stimulus.html","rt":52969},{"block":"triangular_scaffolded","helps":0,"clicked":[["answer","clicked"],["M ","false"],["B ","false"],["J ","false"],["N ","false"],["D ","false"],["O ","false"],["K ","false"],["C ","false"],["F ","false"],["I ","false"],["H ","false"],["G ","false"],["L ","false"],["E ","false"],["A ","false"]],"correct":1,"scaffold":"describe-how","question":"duration","scenario":"axis","graph":"triangular","condition":"2","session":"purple","experiment":"default","subject":"APJ3Z","internal_node_id":"0.0-8.0-2.0","time_elapsed":964628,"trial_index":23,"trial_type":"html","url":"../views/src/external/stimulus.html","rt":51269},{"block":"triangular_scaffolded","helps":0,"clicked":[["answer","clicked"],["M ","false"],["B ","false"],["J ","false"],["N ","false"],["D ","false"],["O ","false"],["K ","false"],["C ","false"],["F ","false"],["I ","false"],["H ","false"],["G ","false"],["L ","false"],["E ","false"],["A ","false"]],"correct":0,"scaffold":"describe-how","question":"midpoint","scenario":"axis","graph":"triangular","condition":"2","session":"purple","experiment":"default","subject":"APJ3Z","internal_node_id":"0.0-8.0-3.0","time_elapsed":1020585,"trial_index":24,"trial_type":"html","url":"../views/src/external/stimulus.html","rt":54689},{"block":"triangular_scaffolded","helps":0,"clicked":[["answer","clicked"],["M ","false"],["B ","false"],["J ","false"],["N ","false"],["D ","false"],["O ","false"],["K ","false"],["C ","false"],["F ","false"],["I ","false"],["H ","false"],["G ","false"],["L ","false"],["E ","false"],["A ","false"]],"correct":0,"scaffold":"describe-how","question":"start+overlap","scenario":"axis","graph":"triangular","condition":"2","session":"purple","experiment":"default","subject":"APJ3Z","internal_node_id":"0.0-8.0-4.0","time_elapsed":1062392,"trial_index":25,"trial_type":"html","url":"../views/src/external/stimulus.html","rt":40529},{"block":"triangular_testing","helps":0,"clicked":[["answer","clicked"],["M ","false"],["B ","false"],["J ","false"],["N ","false"],["D ","false"],["O ","false"],["K ","false"],["C ","false"],["F ","false"],["I ","false"],["H ","false"],["G ","false"],["L ","false"],["E ","false"],["A ","false"]],"correct":0,"scaffold":"none","question":"start+duration","scenario":"axis","graph":"triangular","condition":"2","session":"purple","experiment":"default","subject":"APJ3Z","internal_node_id":"0.0-9.0-0.0","time_elapsed":1099785,"trial_index":26,"trial_type":"html","url":"../views/src/external/stimulus.html","rt":36119},{"block":"triangular_testing","helps":0,"clicked":[["answer","clicked"],["M ","false"],["B ","false"],["J ","false"],["N ","false"],["D ","false"],["O ","false"],["K ","false"],["C ","false"],["F ","false"],["I ","false"],["H ","false"],["G ","false"],["L ","false"],["E ","false"],["A ","false"]],"correct":0,"scaffold":"none","question":"starts","scenario":"axis","graph":"triangular","condition":"2","session":"purple","experiment":"default","subject":"APJ3Z","internal_node_id":"0.0-9.0-5.0","time_elapsed":1122453,"trial_index":27,"trial_type":"html","url":"../views/src/external/stimulus.html","rt":21382},{"block":"triangular_testing","helps":0,"clicked":[["answer","clicked"],["M ","false"],["B ","false"],["J ","false"],["N ","false"],["D ","false"],["O ","false"],["K ","false"],["C ","false"],["F ","false"],["I ","false"],["H ","false"],["G ","false"],["L ","false"],["E ","false"],["A ","false"]],"correct":1,"scaffold":"none","question":"meets","scenario":"axis","graph":"triangular","condition":"2","session":"purple","experiment":"default","subject":"APJ3Z","internal_node_id":"0.0-9.0-8.0","time_elapsed":1182456,"trial_index":28,"trial_type":"html","url":"../views/src/external/stimulus.html","rt":58684},{"block":"triangular_testing","helps":0,"clicked":[["answer","clicked"],["M ","false"],["B ","false"],["J ","false"],["N ","false"],["D ","false"],["O ","false"],["K ","false"],["C ","false"],["F ","false"],["I ","false"],["H ","false"],["G ","false"],["L ","false"],["E ","false"],["A ","false"]],"correct":0,"scaffold":"none","question":"contain+duration","scenario":"axis","graph":"triangular","condition":"2","session":"purple","experiment":"default","subject":"APJ3Z","internal_node_id":"0.0-9.0-4.0","time_elapsed":1206214,"trial_index":29,"trial_type":"html","url":"../views/src/external/stimulus.html","rt":22460},{"block":"triangular_testing","helps":0,"clicked":[["answer","clicked"],["M ","false"],["B ","false"],["J ","false"],["N ","false"],["D ","false"],["O ","false"],["K ","false"],["C ","false"],["F ","false"],["I ","false"],["H ","false"],["G ","false"],["L ","false"],["E ","false"],["A ","false"]],"correct":0,"scaffold":"none","question":"before+overlap","scenario":"axis","graph":"triangular","condition":"2","session":"purple","experiment":"default","subject":"APJ3Z","internal_node_id":"0.0-9.0-1.0","time_elapsed":1220884,"trial_index":30,"trial_type":"html","url":"../views/src/external/stimulus.html","rt":13397},{"block":"triangular_testing","helps":0,"clicked":[["answer","clicked"],["M ","false"],["B ","false"],["J ","false"],["N ","false"],["D ","false"],["O ","false"],["K ","false"],["C ","false"],["F ","false"],["I ","false"],["H ","false"],["G ","false"],["L ","false"],["E ","false"],["A ","false"]],"correct":0,"scaffold":"none","question":"finishes","scenario":"axis","graph":"triangular","condition":"2","session":"purple","experiment":"default","subject":"APJ3Z","internal_node_id":"0.0-9.0-6.0","time_elapsed":1264185,"trial_index":31,"trial_type":"html","url":"../views/src/external/stimulus.html","rt":42022},{"block":"triangular_testing","helps":0,"clicked":[["answer","clicked"],["M ","false"],["B ","false"],["J ","false"],["N ","false"],["D ","false"],["O ","false"],["K ","false"],["C ","false"],["F ","false"],["I ","false"],["H ","false"],["G ","false"],["L ","false"],["E ","false"],["A ","false"]],"correct":0,"scaffold":"none","question":"during","scenario":"axis","graph":"triangular","condition":"2","session":"purple","experiment":"default","subject":"APJ3Z","internal_node_id":"0.0-9.0-7.0","time_elapsed":1274511,"trial_index":32,"trial_type":"html","url":"../views/src/external/stimulus.html","rt":9054},{"block":"triangular_testing","helps":0,"clicked":[["answer","clicked"],["M ","false"],["B ","false"],["J ","false"],["N ","false"],["D ","false"],["O ","false"],["K ","false"],["C ","false"],["F ","false"],["I ","false"],["H ","false"],["G ","false"],["L ","false"],["E ","false"],["A ","false"]],"correct":0,"scaffold":"none","question":"starts+finishes","scenario":"axis","graph":"triangular","condition":"2","session":"purple","experiment":"default","subject":"APJ3Z","internal_node_id":"0.0-9.0-9.0","time_elapsed":1278675,"trial_index":33,"trial_type":"html","url":"../views/src/external/stimulus.html","rt":2899},{"block":"triangular_testing","helps":0,"clicked":[["answer","clicked"],["M ","false"],["B ","false"],["J ","false"],["N ","false"],["D ","false"],["O ","false"],["K ","false"],["C ","false"],["F ","false"],["I ","false"],["H ","false"],["G ","false"],["L ","false"],["E ","false"],["A ","false"]],"correct":0,"scaffold":"none","question":"overlap+overlap","scenario":"axis","graph":"triangular","condition":"2","session":"purple","experiment":"default","subject":"APJ3Z","internal_node_id":"0.0-9.0-2.0","time_elapsed":1283746,"trial_index":34,"trial_type":"html","url":"../views/src/external/stimulus.html","rt":3790},{"block":"triangular_testing","helps":0,"clicked":[["answer","clicked"],["M ","false"],["B ","false"],["J ","false"],["N ","false"],["D ","false"],["O ","false"],["K ","false"],["C ","false"],["F ","false"],["I ","false"],["H ","false"],["G ","false"],["L ","false"],["E ","false"],["A ","false"]],"correct":0,"scaffold":"none","question":"during+overlap","scenario":"axis","graph":"triangular","condition":"2","session":"purple","experiment":"default","subject":"APJ3Z","internal_node_id":"0.0-9.0-3.0","time_elapsed":1293762,"trial_index":35,"trial_type":"html","url":"../views/src/external/stimulus.html","rt":8744},{"condition":"2","session":"purple","experiment":"default","subject":"APJ3Z","internal_node_id":"0.0-10.0","time_elapsed":1310431,"trial_index":36,"trial_type":"single-stim","block":"scenario-draw","key_press":13,"stimulus":"img/jones.png","rt":15665},{"condition":"2","session":"purple","experiment":"default","subject":"APJ3Z","internal_node_id":"0.0-11.0","time_elapsed":2093218,"trial_index":37,"trial_type":"html","block":"instructions_drawing","url":"../views/src/external/instructions_draw.html","rt":781693},{"block":"drawingTest","clicked":[["answer","clicked"]],"correct":0,"scaffold":"none","question":"duration","scenario":"jones","graph":"none","condition":"2","session":"purple","experiment":"default","subject":"APJ3Z","internal_node_id":"0.0-12.0","time_elapsed":2131244,"trial_index":38,"trial_type":"html","url":"../views/src/external/stimulus.html","rt":36344},{"block":"drawingTest","clicked":[["answer","clicked"]],"correct":1,"scaffold":"none","question":"overlap","scenario":"jones","graph":"none","condition":"2","session":"purple","experiment":"default","subject":"APJ3Z","internal_node_id":"0.0-13.0","time_elapsed":2174319,"trial_index":39,"trial_type":"html","url":"../views/src/external/stimulus.html","rt":41727},{"condition":"2","session":"purple","experiment":"default","subject":"APJ3Z","internal_node_id":"0.0-14.0","time_elapsed":2181725,"trial_index":40,"trial_type":"survey-text","block":"demo-1","responses":"{\"Q0\":\"19\",\"Q1\":\"USA\"}","rt":6400},{"condition":"2","session":"purple","experiment":"default","subject":"APJ3Z","internal_node_id":"0.0-15.0","time_elapsed":2212982,"trial_index":41,"trial_type":"survey-multi-choice","block":"demo-2","responses":"{\"Q0\":\"English\",\"Q1\":\"Second\",\"Q2\":\"Social Sciences (incl. CogSci)\",\"Q3\":\"Female\",\"Q4\":\"the first one (linear\"}","rt":30241},{"condition":"2","session":"purple","experiment":"default","subject":"APJ3Z","internal_node_id":"0.0-16.0","time_elapsed":2219965,"trial_index":42,"trial_type":"html","block":"debrief","url":"../views/src/external/debrief.html","rt":5592}],"__v":0}
{"_id":{"$oid":"58b09af7d1b97e0004eb12b9"},"data":[{"condition":"1","session":"purple","experiment":"default","subject":"K631F","internal_node_id":"0.0-0.0","time_elapsed":70153,"trial_index":0,"trial_type":"single-stim","block":"phone","key_press":13,"stimulus":"img/phone.png","rt":70146},{"condition":"1","session":"purple","experiment":"default","subject":"K631F","internal_node_id":"0.0-1.0","time_elapsed":134997,"trial_index":1,"trial_type":"html","block":"instructions_drawing","url":"../views/src/external/consent.html","rt":63484},{"condition":"1","session":"purple","experiment":"default","subject":"K631F","internal_node_id":"0.0-2.0","time_elapsed":143606,"trial_index":2,"trial_type":"survey-text","block":"codes","responses":"{\"Q0\":\"purple\",\"Q1\":\"1\"}","rt":7593},{"condition":"1","session":"purple","experiment":"default","subject":"K631F","internal_node_id":"0.0-3.0","time_elapsed":191982,"trial_index":3,"trial_type":"html","block":"instructions_lab","url":"../views/src/external/instructions_lab.html","rt":47015},{"condition":"1","session":"purple","experiment":"default","subject":"K631F","internal_node_id":"0.0-4.0","time_elapsed":216365,"trial_index":4,"trial_type":"single-stim","block":"scenario-one","key_press":13,"stimulus":"img/longmire.png","rt":23379},{"block":"linear_scaffolded","helps":0,"clicked":[["answer","clicked"],["A ","false"],["M ","false"],["D ","false"],["N ","false"],["B ","false"],["F ","false"],["H ","false"],["G ","false"],["O ","false"],["C ","false"],["J ","false"],["I ","false"],["E ","false"],["L ","false"],["K ","false"]],"correct":1,"scaffold":"describe-what","question":"start","scenario":"longmire","graph":"linear","condition":"1","session":"purple","experiment":"default","subject":"K631F","internal_node_id":"0.0-5.0-0.0","time_elapsed":247556,"trial_index":5,"trial_type":"html","url":"../views/src/external/stimulus.html","rt":29829},{"block":"linear_scaffolded","helps":0,"clicked":[["answer","clicked"],["A ","false"],["M ","false"],["D ","false"],["N ","false"],["B ","false"],["F ","false"],["H ","false"],["G ","false"],["O ","false"],["C ","false"],["J ","false"],["I ","false"],["E ","false"],["L ","false"],["K ","false"]],"correct":0,"scaffold":"describe-what","question":"end","scenario":"longmire","graph":"linear","condition":"1","session":"purple","experiment":"default","subject":"K631F","internal_node_id":"0.0-5.0-1.0","time_elapsed":298584,"trial_index":6,"trial_type":"html","url":"../views/src/external/stimulus.html","rt":49742},{"block":"linear_scaffolded","helps":0,"clicked":[["answer","clicked"],["A ","false"],["M ","false"],["D ","false"],["N ","false"],["B ","false"],["F ","false"],["H ","false"],["G ","false"],["O ","false"],["C ","false"],["J ","false"],["I ","false"],["E ","false"],["L ","false"],["K ","false"]],"correct":1,"scaffold":"describe-what","question":"duration","scenario":"longmire","graph":"linear","condition":"1","session":"purple","experiment":"default","subject":"K631F","internal_node_id":"0.0-5.0-2.0","time_elapsed":323844,"trial_index":7,"trial_type":"html","url":"../views/src/external/stimulus.html","rt":23989},{"block":"linear_scaffolded","helps":0,"clicked":[["answer","clicked"],["A ","false"],["M ","false"],["D ","false"],["N ","false"],["B ","false"],["F ","false"],["H ","false"],["G ","false"],["O ","false"],["C ","false"],["J ","false"],["I ","false"],["E ","false"],["L ","false"],["K ","false"]],"correct":1,"scaffold":"describe-what","question":"midpoint","scenario":"longmire","graph":"linear","condition":"1","session":"purple","experiment":"default","subject":"K631F","internal_node_id":"0.0-5.0-3.0","time_elapsed":343118,"trial_index":8,"trial_type":"html","url":"../views/src/external/stimulus.html","rt":17997},{"block":"linear_scaffolded","helps":0,"clicked":[["answer","clicked"],["A ","false"],["M ","false"],["D ","false"],["N ","false"],["B ","false"],["F ","false"],["H ","false"],["G ","false"],["O ","false"],["C ","false"],["J ","false"],["I ","false"],["E ","false"],["L ","false"],["K ","false"]],"correct":0,"scaffold":"describe-what","question":"start+overlap","scenario":"longmire","graph":"linear","condition":"1","session":"purple","experiment":"default","subject":"K631F","internal_node_id":"0.0-5.0-4.0","time_elapsed":357375,"trial_index":9,"trial_type":"html","url":"../views/src/external/stimulus.html","rt":12986},{"block":"linear_testing","helps":0,"clicked":[["answer","clicked"],["A ","false"],["M ","false"],["D ","false"],["N ","false"],["B ","false"],["F ","false"],["H ","false"],["G ","false"],["O ","false"],["C ","false"],["J ","false"],["I ","false"],["E ","false"],["L ","false"],["K ","false"]],"correct":0,"scaffold":"none","question":"overlap+overlap","scenario":"longmire","graph":"linear","condition":"1","session":"purple","experiment":"default","subject":"K631F","internal_node_id":"0.0-6.0-2.0","time_elapsed":382783,"trial_index":10,"trial_type":"html","url":"../views/src/external/stimulus.html","rt":24119},{"block":"linear_testing","helps":0,"clicked":[["answer","clicked"],["A ","false"],["M ","false"],["D ","false"],["N ","false"],["B ","false"],["F ","false"],["H ","false"],["G ","false"],["O ","false"],["C ","false"],["J ","false"],["I ","false"],["E ","false"],["L ","false"],["K ","false"]],"correct":0,"scaffold":"none","question":"during","scenario":"longmire","graph":"linear","condition":"1","session":"purple","experiment":"default","subject":"K631F","internal_node_id":"0.0-6.0-7.0","time_elapsed":439386,"trial_index":11,"trial_type":"html","url":"../views/src/external/stimulus.html","rt":55329},{"block":"linear_testing","helps":0,"clicked":[["answer","clicked"],["A ","false"],["M ","false"],["D ","false"],["N ","false"],["B ","false"],["F ","false"],["H ","false"],["G ","false"],["O ","false"],["C ","false"],["J ","false"],["I ","false"],["E ","false"],["L ","false"],["K ","false"]],"correct":1,"scaffold":"none","question":"meets","scenario":"longmire","graph":"linear","condition":"1","session":"purple","experiment":"default","subject":"K631F","internal_node_id":"0.0-6.0-8.0","time_elapsed":456026,"trial_index":12,"trial_type":"html","url":"../views/src/external/stimulus.html","rt":15370},{"block":"linear_testing","helps":0,"clicked":[["answer","clicked"],["A ","false"],["M ","false"],["D ","false"],["N ","false"],["B ","false"],["F ","false"],["H ","false"],["G ","false"],["O ","false"],["C ","false"],["J ","false"],["I ","false"],["E ","false"],["L ","false"],["K ","false"]],"correct":1,"scaffold":"none","question":"starts+finishes","scenario":"longmire","graph":"linear","condition":"1","session":"purple","experiment":"default","subject":"K631F","internal_node_id":"0.0-6.0-9.0","time_elapsed":474388,"trial_index":13,"trial_type":"html","url":"../views/src/external/stimulus.html","rt":17093},{"block":"linear_testing","helps":0,"clicked":[["answer","clicked"],["A ","false"],["M ","false"],["D ","false"],["N ","false"],["B ","false"],["F ","false"],["H ","false"],["G ","false"],["O ","false"],["C ","false"],["J ","false"],["I ","false"],["E ","false"],["L ","false"],["K ","false"]],"correct":1,"scaffold":"none","question":"starts","scenario":"longmire","graph":"linear","condition":"1","session":"purple","experiment":"default","subject":"K631F","internal_node_id":"0.0-6.0-5.0","time_elapsed":522891,"trial_index":14,"trial_type":"html","url":"../views/src/external/stimulus.html","rt":47233},{"block":"linear_testing","helps":0,"clicked":[["answer","clicked"],["A ","false"],["M ","false"],["D ","false"],["N ","false"],["B ","false"],["F ","false"],["H ","false"],["G ","false"],["O ","false"],["C ","false"],["J ","false"],["I ","false"],["E ","false"],["L ","false"],["K ","false"]],"correct":1,"scaffold":"none","question":"contain+duration","scenario":"longmire","graph":"linear","condition":"1","session":"purple","experiment":"default","subject":"K631F","internal_node_id":"0.0-6.0-4.0","time_elapsed":540256,"trial_index":15,"trial_type":"html","url":"../views/src/external/stimulus.html","rt":16102},{"block":"linear_testing","helps":0,"clicked":[["answer","clicked"],["A ","false"],["M ","false"],["D ","false"],["N ","false"],["B ","false"],["F ","false"],["H ","false"],["G ","false"],["O ","false"],["C ","false"],["J ","false"],["I ","false"],["E ","false"],["L ","false"],["K ","false"]],"correct":1,"scaffold":"none","question":"before+overlap","scenario":"longmire","graph":"linear","condition":"1","session":"purple","experiment":"default","subject":"K631F","internal_node_id":"0.0-6.0-1.0","time_elapsed":590192,"trial_index":16,"trial_type":"html","url":"../views/src/external/stimulus.html","rt":48659},{"block":"linear_testing","helps":0,"clicked":[["answer","clicked"],["A ","false"],["M ","false"],["D ","false"],["N ","false"],["B ","false"],["F ","false"],["H ","false"],["G ","false"],["O ","false"],["C ","false"],["J ","false"],["I ","false"],["E ","false"],["L ","false"],["K ","false"]],"correct":1,"scaffold":"none","question":"start+duration","scenario":"longmire","graph":"linear","condition":"1","session":"purple","experiment":"default","subject":"K631F","internal_node_id":"0.0-6.0-0.0","time_elapsed":627878,"trial_index":17,"trial_type":"html","url":"../views/src/external/stimulus.html","rt":36383},{"block":"linear_testing","helps":0,"clicked":[["answer","clicked"],["A ","false"],["M ","false"],["D ","false"],["N ","false"],["B ","false"],["F ","false"],["H ","false"],["G ","false"],["O ","false"],["C ","false"],["J ","false"],["I ","false"],["E ","false"],["L ","false"],["K ","false"]],"correct":1,"scaffold":"none","question":"during+overlap","scenario":"longmire","graph":"linear","condition":"1","session":"purple","experiment":"default","subject":"K631F","internal_node_id":"0.0-6.0-3.0","time_elapsed":665936,"trial_index":18,"trial_type":"html","url":"../views/src/external/stimulus.html","rt":36787},{"block":"linear_testing","helps":0,"clicked":[["answer","clicked"],["A ","false"],["M ","false"],["D ","false"],["N ","false"],["B ","false"],["F ","false"],["H ","false"],["G ","false"],["O ","false"],["C ","false"],["J ","false"],["I ","false"],["E ","false"],["L ","false"],["K ","false"]],"correct":1,"scaffold":"none","question":"finishes","scenario":"longmire","graph":"linear","condition":"1","session":"purple","experiment":"default","subject":"K631F","internal_node_id":"0.0-6.0-6.0","time_elapsed":692524,"trial_index":19,"trial_type":"html","url":"../views/src/external/stimulus.html","rt":25324},{"condition":"1","session":"purple","experiment":"default","subject":"K631F","internal_node_id":"0.0-7.0","time_elapsed":721320,"trial_index":20,"trial_type":"single-stim","block":"scenario-two","key_press":13,"stimulus":"img/axis.png","rt":27792},{"block":"triangular_scaffolded","helps":0,"clicked":[["answer","clicked"],["M ","false"],["B ","false"],["J ","false"],["N ","false"],["D ","false"],["O ","false"],["K ","false"],["C ","false"],["F ","false"],["I ","false"],["H ","false"],["G ","false"],["L ","false"],["E ","false"],["A ","false"]],"correct":0,"scaffold":"describe-what","question":"start","scenario":"axis","graph":"triangular","condition":"1","session":"purple","experiment":"default","subject":"K631F","internal_node_id":"0.0-8.0-0.0","time_elapsed":736572,"trial_index":21,"trial_type":"html","url":"../views/src/external/stimulus.html","rt":13986},{"block":"triangular_scaffolded","helps":0,"clicked":[["answer","clicked"],["M ","false"],["B ","false"],["J ","false"],["N ","false"],["D ","false"],["O ","false"],["K ","false"],["C ","false"],["F ","false"],["I ","false"],["H ","false"],["G ","false"],["L ","false"],["E ","false"],["A ","false"]],"correct":0,"scaffold":"describe-what","question":"end","scenario":"axis","graph":"triangular","condition":"1","session":"purple","experiment":"default","subject":"K631F","internal_node_id":"0.0-8.0-1.0","time_elapsed":774225,"trial_index":22,"trial_type":"html","url":"../views/src/external/stimulus.html","rt":36376},{"block":"triangular_scaffolded","helps":1,"clicked":[["answer","clicked"],["M ","false"],["B ","false"],["J ","false"],["N ","false"],["D ","false"],["O ","false"],["K ","false"],["C ","false"],["F ","false"],["I ","false"],["H ","false"],["G ","false"],["L ","false"],["E ","false"],["A ","false"]],"correct":1,"scaffold":"describe-what","question":"duration","scenario":"axis","graph":"triangular","condition":"1","session":"purple","experiment":"default","subject":"K631F","internal_node_id":"0.0-8.0-2.0","time_elapsed":869036,"trial_index":23,"trial_type":"html","url":"../views/src/external/stimulus.html","rt":93542},{"block":"triangular_scaffolded","helps":0,"clicked":[["answer","clicked"],["M ","false"],["B ","false"],["J ","false"],["N ","false"],["D ","false"],["O ","false"],["K ","false"],["C ","false"],["F ","false"],["I ","false"],["H ","false"],["G ","false"],["L ","false"],["E ","false"],["A ","false"]],"correct":1,"scaffold":"describe-what","question":"midpoint","scenario":"axis","graph":"triangular","condition":"1","session":"purple","experiment":"default","subject":"K631F","internal_node_id":"0.0-8.0-3.0","time_elapsed":981985,"trial_index":24,"trial_type":"html","url":"../views/src/external/stimulus.html","rt":111303},{"block":"triangular_scaffolded","helps":0,"clicked":[["answer","clicked"],["M ","false"],["B ","false"],["J ","false"],["N ","false"],["D ","false"],["O ","false"],["K ","false"],["C ","false"],["F ","false"],["I ","false"],["H ","true"],["G ","false"],["L ","false"],["E ","false"],["A ","false"]],"correct":1,"scaffold":"describe-what","question":"start+overlap","scenario":"axis","graph":"triangular","condition":"1","session":"purple","experiment":"default","subject":"K631F","internal_node_id":"0.0-8.0-4.0","time_elapsed":1060131,"trial_index":25,"trial_type":"html","url":"../views/src/external/stimulus.html","rt":76493},{"block":"triangular_testing","helps":0,"clicked":[["answer","clicked"],["M ","false"],["B ","false"],["J ","false"],["N ","false"],["D ","false"],["O ","false"],["K ","false"],["C ","false"],["F ","false"],["I ","false"],["H ","false"],["G ","false"],["L ","false"],["E ","false"],["A ","false"]],"correct":1,"scaffold":"none","question":"during+overlap","scenario":"axis","graph":"triangular","condition":"1","session":"purple","experiment":"default","subject":"K631F","internal_node_id":"0.0-9.0-3.0","time_elapsed":1120855,"trial_index":26,"trial_type":"html","url":"../views/src/external/stimulus.html","rt":59214},{"block":"triangular_testing","helps":0,"clicked":[["answer","clicked"],["M ","false"],["B ","false"],["J ","false"],["N ","false"],["D ","false"],["O ","false"],["K ","false"],["C ","false"],["F ","false"],["I ","false"],["H ","false"],["G ","false"],["L ","false"],["E ","false"],["A ","false"]],"correct":0,"scaffold":"none","question":"meets","scenario":"axis","graph":"triangular","condition":"1","session":"purple","experiment":"default","subject":"K631F","internal_node_id":"0.0-9.0-8.0","time_elapsed":1180538,"trial_index":27,"trial_type":"html","url":"../views/src/external/stimulus.html","rt":58045},{"block":"triangular_testing","helps":0,"clicked":[["answer","clicked"],["M ","false"],["B ","false"],["J ","false"],["N ","false"],["D ","false"],["O ","false"],["K ","false"],["C ","false"],["F ","false"],["I ","false"],["H ","false"],["G ","false"],["L ","false"],["E ","false"],["A ","false"]],"correct":1,"scaffold":"none","question":"finishes","scenario":"axis","graph":"triangular","condition":"1","session":"purple","experiment":"default","subject":"K631F","internal_node_id":"0.0-9.0-6.0","time_elapsed":1196287,"trial_index":28,"trial_type":"html","url":"../views/src/external/stimulus.html","rt":14476},{"block":"triangular_testing","helps":0,"clicked":[["answer","clicked"],["M ","false"],["B ","false"],["J ","false"],["N ","false"],["D ","false"],["O ","false"],["K ","false"],["C ","false"],["F ","false"],["I ","false"],["H ","false"],["G ","false"],["L ","false"],["E ","false"],["A ","false"]],"correct":0,"scaffold":"none","question":"contain+duration","scenario":"axis","graph":"triangular","condition":"1","session":"purple","experiment":"default","subject":"K631F","internal_node_id":"0.0-9.0-4.0","time_elapsed":1222130,"trial_index":29,"trial_type":"html","url":"../views/src/external/stimulus.html","rt":24566},{"block":"triangular_testing","helps":0,"clicked":[["answer","clicked"],["M ","false"],["B ","false"],["J ","false"],["N ","false"],["D ","false"],["O ","false"],["K ","false"],["C ","false"],["F ","false"],["I ","false"],["H ","false"],["G ","false"],["L ","false"],["E ","false"],["A ","false"]],"correct":1,"scaffold":"none","question":"before+overlap","scenario":"axis","graph":"triangular","condition":"1","session":"purple","experiment":"default","subject":"K631F","internal_node_id":"0.0-9.0-1.0","time_elapsed":1259663,"trial_index":30,"trial_type":"html","url":"../views/src/external/stimulus.html","rt":36253},{"block":"triangular_testing","helps":0,"clicked":[["answer","clicked"],["M ","false"],["B ","false"],["J ","false"],["N ","false"],["D ","false"],["O ","false"],["K ","false"],["C ","false"],["F ","false"],["I ","false"],["H ","false"],["G ","false"],["L ","false"],["E ","false"],["A ","false"]],"correct":1,"scaffold":"none","question":"starts","scenario":"axis","graph":"triangular","condition":"1","session":"purple","experiment":"default","subject":"K631F","internal_node_id":"0.0-9.0-5.0","time_elapsed":1289118,"trial_index":31,"trial_type":"html","url":"../views/src/external/stimulus.html","rt":28179},{"block":"triangular_testing","helps":0,"clicked":[["answer","clicked"],["M ","false"],["B ","false"],["J ","false"],["N ","false"],["D ","false"],["O ","false"],["K ","false"],["C ","false"],["F ","false"],["I ","false"],["H ","false"],["G ","false"],["L ","false"],["E ","false"],["A ","false"]],"correct":1,"scaffold":"none","question":"starts+finishes","scenario":"axis","graph":"triangular","condition":"1","session":"purple","experiment":"default","subject":"K631F","internal_node_id":"0.0-9.0-9.0","time_elapsed":1307859,"trial_index":32,"trial_type":"html","url":"../views/src/external/stimulus.html","rt":17404},{"block":"triangular_testing","helps":0,"clicked":[["answer","clicked"],["M ","false"],["B ","false"],["J ","false"],["N ","false"],["D ","false"],["O ","false"],["K ","false"],["C ","false"],["F ","false"],["I ","false"],["H ","false"],["G ","false"],["L ","false"],["E ","false"],["A ","false"]],"correct":0,"scaffold":"none","question":"during","scenario":"axis","graph":"triangular","condition":"1","session":"purple","experiment":"default","subject":"K631F","internal_node_id":"0.0-9.0-7.0","time_elapsed":1317489,"trial_index":33,"trial_type":"html","url":"../views/src/external/stimulus.html","rt":8359},{"block":"triangular_testing","helps":0,"clicked":[["answer","clicked"],["M ","false"],["B ","false"],["J ","false"],["N ","false"],["D ","false"],["O ","false"],["K ","false"],["C ","false"],["F ","false"],["I ","false"],["H ","false"],["G ","false"],["L ","false"],["E ","false"],["A ","false"]],"correct":0,"scaffold":"none","question":"start+duration","scenario":"axis","graph":"triangular","condition":"1","session":"purple","experiment":"default","subject":"K631F","internal_node_id":"0.0-9.0-0.0","time_elapsed":1368084,"trial_index":34,"trial_type":"html","url":"../views/src/external/stimulus.html","rt":49307},{"block":"triangular_testing","helps":0,"clicked":[["answer","clicked"],["M ","false"],["B ","false"],["J ","false"],["N ","false"],["D ","false"],["O ","false"],["K ","false"],["C ","false"],["F ","false"],["I ","false"],["H ","false"],["G ","false"],["L ","false"],["E ","false"],["A ","false"]],"correct":0,"scaffold":"none","question":"overlap+overlap","scenario":"axis","graph":"triangular","condition":"1","session":"purple","experiment":"default","subject":"K631F","internal_node_id":"0.0-9.0-2.0","time_elapsed":1400262,"trial_index":35,"trial_type":"html","url":"../views/src/external/stimulus.html","rt":30902},{"condition":"1","session":"purple","experiment":"default","subject":"K631F","internal_node_id":"0.0-10.0","time_elapsed":1423796,"trial_index":36,"trial_type":"single-stim","block":"scenario-draw","key_press":13,"stimulus":"img/jones.png","rt":22528},{"condition":"1","session":"purple","experiment":"default","subject":"K631F","internal_node_id":"0.0-11.0","time_elapsed":1867193,"trial_index":37,"trial_type":"html","block":"instructions_drawing","url":"../views/src/external/instructions_draw.html","rt":442296},{"block":"drawingTest","clicked":[["answer","clicked"]],"correct":0,"scaffold":"none","question":"duration","scenario":"jones","graph":"none","condition":"1","session":"purple","experiment":"default","subject":"K631F","internal_node_id":"0.0-12.0","time_elapsed":1937047,"trial_index":38,"trial_type":"html","url":"../views/src/external/stimulus.html","rt":68309},{"block":"drawingTest","clicked":[["answer","clicked"]],"correct":1,"scaffold":"none","question":"overlap","scenario":"jones","graph":"none","condition":"1","session":"purple","experiment":"default","subject":"K631F","internal_node_id":"0.0-13.0","time_elapsed":2025183,"trial_index":39,"trial_type":"html","url":"../views/src/external/stimulus.html","rt":86603},{"condition":"1","session":"purple","experiment":"default","subject":"K631F","internal_node_id":"0.0-14.0","time_elapsed":2037454,"trial_index":40,"trial_type":"survey-text","block":"demo-1","responses":"{\"Q0\":\"21\",\"Q1\":\"China\"}","rt":11264},{"condition":"1","session":"purple","experiment":"default","subject":"K631F","internal_node_id":"0.0-15.0","time_elapsed":2061621,"trial_index":41,"trial_type":"survey-multi-choice","block":"demo-2","responses":"{\"Q0\":\"Mandarin or Cantonese\",\"Q1\":\"Third\",\"Q2\":\"Natural Sciences\",\"Q3\":\"Female\",\"Q4\":\"the first one (linear\"}","rt":23148},{"condition":"1","session":"purple","experiment":"default","subject":"K631F","internal_node_id":"0.0-16.0","time_elapsed":2189163,"trial_index":42,"trial_type":"html","block":"debrief","url":"../views/src/external/debrief.html","rt":126190}],"__v":0}
{"_id":{"$oid":"58b09b1ad1b97e0004eb12ba"},"data":[{"condition":"4","session":"purple","experiment":"default","subject":"SW8A1","internal_node_id":"0.0-0.0","time_elapsed":32181,"trial_index":0,"trial_type":"single-stim","block":"phone","key_press":13,"stimulus":"img/phone.png","rt":32172},{"condition":"4","session":"purple","experiment":"default","subject":"SW8A1","internal_node_id":"0.0-1.0","time_elapsed":38209,"trial_index":1,"trial_type":"html","block":"instructions_drawing","url":"../views/src/external/consent.html","rt":4931},{"condition":"4","session":"purple","experiment":"default","subject":"SW8A1","internal_node_id":"0.0-2.0","time_elapsed":55702,"trial_index":2,"trial_type":"survey-text","block":"codes","responses":"{\"Q0\":\"purple\",\"Q1\":\"4\"}","rt":16485},{"condition":"4","session":"purple","experiment":"default","subject":"SW8A1","internal_node_id":"0.0-3.0","time_elapsed":98574,"trial_index":3,"trial_type":"html","block":"instructions_lab","url":"../views/src/external/instructions_lab.html","rt":41775},{"condition":"4","session":"purple","experiment":"default","subject":"SW8A1","internal_node_id":"0.0-4.0","time_elapsed":128969,"trial_index":4,"trial_type":"single-stim","block":"scenario-one","key_press":13,"stimulus":"img/axis.png","rt":29392},{"block":"linear_scaffolded","helps":0,"clicked":[["answer","clicked"],["M ","false"],["B ","false"],["J ","false"],["N ","false"],["D ","false"],["O ","false"],["K ","false"],["C ","false"],["F ","false"],["I ","false"],["H ","false"],["G ","false"],["L ","false"],["E ","false"],["A ","false"]],"correct":1,"scaffold":"show-interactive","question":"start","scenario":"axis","graph":"linear","condition":"4","session":"purple","experiment":"default","subject":"SW8A1","internal_node_id":"0.0-5.0-0.0","time_elapsed":161395,"trial_index":5,"trial_type":"html","url":"../views/src/external/stimulus.html","rt":31060},{"block":"linear_scaffolded","helps":0,"clicked":[["answer","clicked"],["M ","false"],["B ","false"],["J ","false"],["N ","false"],["D ","false"],["O ","false"],["K ","false"],["C ","false"],["F ","false"],["I ","false"],["H ","false"],["G ","false"],["L ","false"],["E ","false"],["A ","false"]],"correct":1,"scaffold":"show-interactive","question":"end","scenario":"axis","graph":"linear","condition":"4","session":"purple","experiment":"default","subject":"SW8A1","internal_node_id":"0.0-5.0-1.0","time_elapsed":175920,"trial_index":6,"trial_type":"html","url":"../views/src/external/stimulus.html","rt":13076},{"block":"linear_scaffolded","helps":0,"clicked":[["answer","clicked"],["M ","false"],["B ","false"],["J ","false"],["N ","false"],["D ","false"],["O ","false"],["K ","false"],["C ","false"],["F ","false"],["I ","false"],["H ","false"],["G ","false"],["L ","false"],["E ","false"],["A ","false"]],"correct":1,"scaffold":"show-interactive","question":"duration","scenario":"axis","graph":"linear","condition":"4","session":"purple","experiment":"default","subject":"SW8A1","internal_node_id":"0.0-5.0-2.0","time_elapsed":257276,"trial_index":7,"trial_type":"html","url":"../views/src/external/stimulus.html","rt":79910},{"block":"linear_scaffolded","helps":0,"clicked":[["answer","clicked"],["M ","false"],["B ","false"],["J ","false"],["N ","false"],["D ","false"],["O ","false"],["K ","false"],["C ","false"],["F ","false"],["I ","false"],["H ","false"],["G ","false"],["L ","false"],["E ","false"],["A ","false"]],"correct":1,"scaffold":"show-interactive","question":"midpoint","scenario":"axis","graph":"linear","condition":"4","session":"purple","experiment":"default","subject":"SW8A1","internal_node_id":"0.0-5.0-3.0","time_elapsed":308856,"trial_index":8,"trial_type":"html","url":"../views/src/external/stimulus.html","rt":49859},{"block":"linear_scaffolded","helps":0,"clicked":[["answer","clicked"],["M ","false"],["B ","false"],["J ","false"],["N ","false"],["D ","false"],["O ","false"],["K ","false"],["C ","false"],["F ","false"],["I ","false"],["H ","false"],["G ","false"],["L ","false"],["E ","false"],["A ","false"]],"correct":1,"scaffold":"show-interactive","question":"start+overlap","scenario":"axis","graph":"linear","condition":"4","session":"purple","experiment":"default","subject":"SW8A1","internal_node_id":"0.0-5.0-4.0","time_elapsed":328537,"trial_index":9,"trial_type":"html","url":"../views/src/external/stimulus.html","rt":18384},{"block":"linear_testing","helps":0,"clicked":[["answer","clicked"],["M ","false"],["B ","false"],["J ","false"],["N ","false"],["D ","false"],["O ","false"],["K ","false"],["C ","false"],["F ","false"],["I ","false"],["H ","false"],["G ","false"],["L ","false"],["E ","false"],["A ","false"]],"correct":1,"scaffold":"none","question":"starts","scenario":"axis","graph":"linear","condition":"4","session":"purple","experiment":"default","subject":"SW8A1","internal_node_id":"0.0-6.0-5.0","time_elapsed":355155,"trial_index":10,"trial_type":"html","url":"../views/src/external/stimulus.html","rt":25323},{"block":"linear_testing","helps":0,"clicked":[["answer","clicked"],["M ","false"],["B ","false"],["J ","false"],["N ","false"],["D ","false"],["O ","false"],["K ","false"],["C ","false"],["F ","false"],["I ","false"],["H ","false"],["G ","false"],["L ","false"],["E ","false"],["A ","false"]],"correct":0,"scaffold":"none","question":"overlap+overlap","scenario":"axis","graph":"linear","condition":"4","session":"purple","experiment":"default","subject":"SW8A1","internal_node_id":"0.0-6.0-2.0","time_elapsed":384252,"trial_index":11,"trial_type":"html","url":"../views/src/external/stimulus.html","rt":27833},{"block":"linear_testing","helps":0,"clicked":[["answer","clicked"],["M ","false"],["B ","false"],["J ","false"],["N ","false"],["D ","false"],["O ","false"],["K ","false"],["C ","false"],["F ","false"],["I ","false"],["H ","false"],["G ","false"],["L ","false"],["E ","false"],["A ","false"]],"correct":1,"scaffold":"none","question":"start+duration","scenario":"axis","graph":"linear","condition":"4","session":"purple","experiment":"default","subject":"SW8A1","internal_node_id":"0.0-6.0-0.0","time_elapsed":403549,"trial_index":12,"trial_type":"html","url":"../views/src/external/stimulus.html","rt":18022},{"block":"linear_testing","helps":0,"clicked":[["answer","clicked"],["M ","false"],["B ","false"],["J ","false"],["N ","false"],["D ","false"],["O ","false"],["K ","false"],["C ","false"],["F ","false"],["I ","false"],["H ","false"],["G ","false"],["L ","false"],["E ","false"],["A ","false"]],"correct":1,"scaffold":"none","question":"contain+duration","scenario":"axis","graph":"linear","condition":"4","session":"purple","experiment":"default","subject":"SW8A1","internal_node_id":"0.0-6.0-4.0","time_elapsed":450600,"trial_index":13,"trial_type":"html","url":"../views/src/external/stimulus.html","rt":45736},{"block":"linear_testing","helps":0,"clicked":[["answer","clicked"],["M ","false"],["B ","false"],["J ","false"],["N ","false"],["D ","false"],["O ","false"],["K ","false"],["C ","false"],["F ","false"],["I ","false"],["H ","false"],["G ","false"],["L ","false"],["E ","false"],["A ","false"]],"correct":1,"scaffold":"none","question":"finishes","scenario":"axis","graph":"linear","condition":"4","session":"purple","experiment":"default","subject":"SW8A1","internal_node_id":"0.0-6.0-6.0","time_elapsed":468566,"trial_index":14,"trial_type":"html","url":"../views/src/external/stimulus.html","rt":16698},{"block":"linear_testing","helps":0,"clicked":[["answer","clicked"],["M ","false"],["B ","false"],["J ","false"],["N ","false"],["D ","false"],["O ","false"],["K ","false"],["C ","false"],["F ","false"],["I ","false"],["H ","false"],["G ","false"],["L ","false"],["E ","false"],["A ","false"]],"correct":1,"scaffold":"none","question":"meets","scenario":"axis","graph":"linear","condition":"4","session":"purple","experiment":"default","subject":"SW8A1","internal_node_id":"0.0-6.0-8.0","time_elapsed":580446,"trial_index":15,"trial_type":"html","url":"../views/src/external/stimulus.html","rt":110603},{"block":"linear_testing","helps":0,"clicked":[["answer","clicked"],["M ","false"],["B ","false"],["J ","false"],["N ","false"],["D ","false"],["O ","false"],["K ","false"],["C ","false"],["F ","false"],["I ","false"],["H ","false"],["G ","false"],["L ","false"],["E ","false"],["A ","false"]],"correct":1,"scaffold":"none","question":"starts+finishes","scenario":"axis","graph":"linear","condition":"4","session":"purple","experiment":"default","subject":"SW8A1","internal_node_id":"0.0-6.0-9.0","time_elapsed":598295,"trial_index":16,"trial_type":"html","url":"../views/src/external/stimulus.html","rt":16315},{"block":"linear_testing","helps":0,"clicked":[["answer","clicked"],["M ","false"],["B ","false"],["J ","false"],["N ","false"],["D ","false"],["O ","false"],["K ","false"],["C ","false"],["F ","false"],["I ","false"],["H ","false"],["G ","false"],["L ","false"],["E ","false"],["A ","false"]],"correct":1,"scaffold":"none","question":"before+overlap","scenario":"axis","graph":"linear","condition":"4","session":"purple","experiment":"default","subject":"SW8A1","internal_node_id":"0.0-6.0-1.0","time_elapsed":640188,"trial_index":17,"trial_type":"html","url":"../views/src/external/stimulus.html","rt":40622},{"block":"linear_testing","helps":0,"clicked":[["answer","clicked"],["M ","false"],["B ","false"],["J ","false"],["N ","false"],["D ","false"],["O ","false"],["K ","false"],["C ","false"],["F ","false"],["I ","false"],["H ","false"],["G ","false"],["L ","false"],["E ","false"],["A ","false"]],"correct":1,"scaffold":"none","question":"during","scenario":"axis","graph":"linear","condition":"4","session":"purple","experiment":"default","subject":"SW8A1","internal_node_id":"0.0-6.0-7.0","time_elapsed":666710,"trial_index":18,"trial_type":"html","url":"../views/src/external/stimulus.html","rt":25236},{"block":"linear_testing","helps":0,"clicked":[["answer","clicked"],["M ","false"],["B ","false"],["J ","false"],["N ","false"],["D ","false"],["O ","false"],["K ","false"],["C ","false"],["F ","false"],["I ","false"],["H ","false"],["G ","false"],["L ","false"],["E ","false"],["A ","false"]],"correct":1,"scaffold":"none","question":"during+overlap","scenario":"axis","graph":"linear","condition":"4","session":"purple","experiment":"default","subject":"SW8A1","internal_node_id":"0.0-6.0-3.0","time_elapsed":704057,"trial_index":19,"trial_type":"html","url":"../views/src/external/stimulus.html","rt":36083},{"condition":"4","session":"purple","experiment":"default","subject":"SW8A1","internal_node_id":"0.0-7.0","time_elapsed":730446,"trial_index":20,"trial_type":"single-stim","block":"scenario-two","key_press":13,"stimulus":"img/longmire.png","rt":25383},{"block":"triangular_scaffolded","helps":0,"clicked":[["answer","clicked"],["A ","false"],["M ","false"],["D ","false"],["N ","false"],["B ","false"],["F ","false"],["H ","false"],["G ","false"],["O ","false"],["C ","false"],["J ","false"],["I ","false"],["E ","false"],["L ","false"],["K ","false"]],"correct":1,"scaffold":"show-interactive","question":"start","scenario":"longmire","graph":"triangular","condition":"4","session":"purple","experiment":"default","subject":"SW8A1","internal_node_id":"0.0-8.0-0.0","time_elapsed":792703,"trial_index":21,"trial_type":"html","url":"../views/src/external/stimulus.html","rt":60988},{"block":"triangular_scaffolded","helps":0,"clicked":[["answer","clicked"],["A ","false"],["M ","false"],["D ","false"],["N ","false"],["B ","false"],["F ","false"],["H ","false"],["G ","false"],["O ","false"],["C ","false"],["J ","false"],["I ","false"],["E ","false"],["L ","false"],["K ","false"]],"correct":1,"scaffold":"show-interactive","question":"end","scenario":"longmire","graph":"triangular","condition":"4","session":"purple","experiment":"default","subject":"SW8A1","internal_node_id":"0.0-8.0-1.0","time_elapsed":848118,"trial_index":22,"trial_type":"html","url":"../views/src/external/stimulus.html","rt":53868},{"block":"triangular_scaffolded","helps":0,"clicked":[["answer","clicked"],["A ","false"],["M ","false"],["D ","false"],["N ","false"],["B ","false"],["F ","false"],["H ","false"],["G ","false"],["O ","false"],["C ","false"],["J ","false"],["I ","false"],["E ","false"],["L ","false"],["K ","false"]],"correct":1,"scaffold":"show-interactive","question":"duration","scenario":"longmire","graph":"triangular","condition":"4","session":"purple","experiment":"default","subject":"SW8A1","internal_node_id":"0.0-8.0-2.0","time_elapsed":860062,"trial_index":23,"trial_type":"html","url":"../views/src/external/stimulus.html","rt":10666},{"block":"triangular_scaffolded","helps":0,"clicked":[["answer","clicked"],["A ","false"],["M ","false"],["D ","false"],["N ","false"],["B ","false"],["F ","false"],["H ","false"],["G ","false"],["O ","false"],["C ","false"],["J ","false"],["I ","false"],["E ","false"],["L ","false"],["K ","false"]],"correct":1,"scaffold":"show-interactive","question":"midpoint","scenario":"longmire","graph":"triangular","condition":"4","session":"purple","experiment":"default","subject":"SW8A1","internal_node_id":"0.0-8.0-3.0","time_elapsed":894013,"trial_index":24,"trial_type":"html","url":"../views/src/external/stimulus.html","rt":32653},{"block":"triangular_scaffolded","helps":0,"clicked":[["answer","clicked"],["A ","false"],["M ","false"],["D ","false"],["N ","false"],["B ","false"],["F ","false"],["H ","false"],["G ","false"],["O ","false"],["C ","false"],["J ","false"],["I ","false"],["E ","false"],["L ","false"],["K ","false"]],"correct":1,"scaffold":"show-interactive","question":"start+overlap","scenario":"longmire","graph":"triangular","condition":"4","session":"purple","experiment":"default","subject":"SW8A1","internal_node_id":"0.0-8.0-4.0","time_elapsed":937971,"trial_index":25,"trial_type":"html","url":"../views/src/external/stimulus.html","rt":42659},{"block":"triangular_testing","helps":0,"clicked":[["answer","clicked"],["A ","false"],["M ","false"],["D ","false"],["N ","false"],["B ","false"],["F ","false"],["H ","false"],["G ","false"],["O ","false"],["C ","false"],["J ","false"],["I ","false"],["E ","false"],["L ","false"],["K ","false"]],"correct":1,"scaffold":"none","question":"contain+duration","scenario":"longmire","graph":"triangular","condition":"4","session":"purple","experiment":"default","subject":"SW8A1","internal_node_id":"0.0-9.0-4.0","time_elapsed":967503,"trial_index":26,"trial_type":"html","url":"../views/src/external/stimulus.html","rt":28262},{"block":"triangular_testing","helps":0,"clicked":[["answer","clicked"],["A ","false"],["M ","false"],["D ","false"],["N ","false"],["B ","false"],["F ","false"],["H ","false"],["G ","false"],["O ","false"],["C ","false"],["J ","false"],["I ","false"],["E ","false"],["L ","false"],["K ","false"]],"correct":1,"scaffold":"none","question":"starts","scenario":"longmire","graph":"triangular","condition":"4","session":"purple","experiment":"default","subject":"SW8A1","internal_node_id":"0.0-9.0-5.0","time_elapsed":1007054,"trial_index":27,"trial_type":"html","url":"../views/src/external/stimulus.html","rt":38251},{"block":"triangular_testing","helps":0,"clicked":[["answer","clicked"],["A ","false"],["M ","false"],["D ","false"],["N ","false"],["B ","false"],["F ","false"],["H ","false"],["G ","false"],["O ","false"],["C ","false"],["J ","false"],["I ","false"],["E ","false"],["L ","false"],["K ","false"]],"correct":1,"scaffold":"none","question":"meets","scenario":"longmire","graph":"triangular","condition":"4","session":"purple","experiment":"default","subject":"SW8A1","internal_node_id":"0.0-9.0-8.0","time_elapsed":1040252,"trial_index":28,"trial_type":"html","url":"../views/src/external/stimulus.html","rt":31901},{"block":"triangular_testing","helps":0,"clicked":[["answer","clicked"],["A ","false"],["M ","false"],["D ","false"],["N ","false"],["B ","false"],["F ","false"],["H ","false"],["G ","false"],["O ","false"],["C ","false"],["J ","false"],["I ","false"],["E ","false"],["L ","false"],["K ","false"]],"correct":1,"scaffold":"none","question":"start+duration","scenario":"longmire","graph":"triangular","condition":"4","session":"purple","experiment":"default","subject":"SW8A1","internal_node_id":"0.0-9.0-0.0","time_elapsed":1066389,"trial_index":29,"trial_type":"html","url":"../views/src/external/stimulus.html","rt":24858},{"block":"triangular_testing","helps":0,"clicked":[["answer","clicked"],["A ","false"],["M ","false"],["D ","false"],["N ","false"],["B ","false"],["F ","false"],["H ","false"],["G ","false"],["O ","false"],["C ","false"],["J ","false"],["I ","false"],["E ","false"],["L ","false"],["K ","false"]],"correct":1,"scaffold":"none","question":"during","scenario":"longmire","graph":"triangular","condition":"4","session":"purple","experiment":"default","subject":"SW8A1","internal_node_id":"0.0-9.0-7.0","time_elapsed":1107373,"trial_index":30,"trial_type":"html","url":"../views/src/external/stimulus.html","rt":39710},{"block":"triangular_testing","helps":0,"clicked":[["answer","clicked"],["A ","false"],["M ","false"],["D ","false"],["N ","false"],["B ","false"],["F ","false"],["H ","false"],["G ","false"],["O ","false"],["C ","false"],["J ","false"],["I ","false"],["E ","false"],["L ","false"],["K ","false"]],"correct":1,"scaffold":"none","question":"overlap+overlap","scenario":"longmire","graph":"triangular","condition":"4","session":"purple","experiment":"default","subject":"SW8A1","internal_node_id":"0.0-9.0-2.0","time_elapsed":1153027,"trial_index":31,"trial_type":"html","url":"../views/src/external/stimulus.html","rt":44346},{"block":"triangular_testing","helps":0,"clicked":[["answer","clicked"],["A ","false"],["M ","false"],["D ","false"],["N ","false"],["B ","false"],["F ","false"],["H ","false"],["G ","false"],["O ","false"],["C ","false"],["J ","false"],["I ","false"],["E ","false"],["L ","false"],["K ","false"]],"correct":1,"scaffold":"none","question":"starts+finishes","scenario":"longmire","graph":"triangular","condition":"4","session":"purple","experiment":"default","subject":"SW8A1","internal_node_id":"0.0-9.0-9.0","time_elapsed":1173261,"trial_index":32,"trial_type":"html","url":"../views/src/external/stimulus.html","rt":18953},{"block":"triangular_testing","helps":0,"clicked":[["answer","clicked"],["A ","false"],["M ","false"],["D ","false"],["N ","false"],["B ","false"],["F ","false"],["H ","false"],["G ","false"],["O ","false"],["C ","false"],["J ","false"],["I ","false"],["E ","false"],["L ","false"],["K ","false"]],"correct":1,"scaffold":"none","question":"finishes","scenario":"longmire","graph":"triangular","condition":"4","session":"purple","experiment":"default","subject":"SW8A1","internal_node_id":"0.0-9.0-6.0","time_elapsed":1193129,"trial_index":33,"trial_type":"html","url":"../views/src/external/stimulus.html","rt":18595},{"block":"triangular_testing","helps":0,"clicked":[["answer","clicked"],["A ","false"],["M ","false"],["D ","false"],["N ","false"],["B ","false"],["F ","false"],["H ","false"],["G ","false"],["O ","false"],["C ","false"],["J ","false"],["I ","false"],["E ","false"],["L ","false"],["K ","false"]],"correct":1,"scaffold":"none","question":"before+overlap","scenario":"longmire","graph":"triangular","condition":"4","session":"purple","experiment":"default","subject":"SW8A1","internal_node_id":"0.0-9.0-1.0","time_elapsed":1243618,"trial_index":34,"trial_type":"html","url":"../views/src/external/stimulus.html","rt":49207},{"block":"triangular_testing","helps":0,"clicked":[["answer","clicked"],["A ","false"],["M ","false"],["D ","false"],["N ","false"],["B ","false"],["F ","false"],["H ","false"],["G ","false"],["O ","false"],["C ","false"],["J ","false"],["I ","false"],["E ","false"],["L ","false"],["K ","false"]],"correct":0,"scaffold":"none","question":"during+overlap","scenario":"longmire","graph":"triangular","condition":"4","session":"purple","experiment":"default","subject":"SW8A1","internal_node_id":"0.0-9.0-3.0","time_elapsed":1267065,"trial_index":35,"trial_type":"html","url":"../views/src/external/stimulus.html","rt":22169},{"condition":"4","session":"purple","experiment":"default","subject":"SW8A1","internal_node_id":"0.0-10.0","time_elapsed":1291299,"trial_index":36,"trial_type":"single-stim","block":"scenario-draw","key_press":13,"stimulus":"img/jones.png","rt":23229},{"condition":"4","session":"purple","experiment":"default","subject":"SW8A1","internal_node_id":"0.0-11.0","time_elapsed":1821924,"trial_index":37,"trial_type":"html","block":"instructions_drawing","url":"../views/src/external/instructions_draw.html","rt":529481},{"block":"drawingTest","clicked":[["answer","clicked"]],"correct":0,"scaffold":"none","question":"duration","scenario":"jones","graph":"none","condition":"4","session":"purple","experiment":"default","subject":"SW8A1","internal_node_id":"0.0-12.0","time_elapsed":1897947,"trial_index":38,"trial_type":"html","url":"../views/src/external/stimulus.html","rt":74455},{"block":"drawingTest","clicked":[["answer","clicked"]],"correct":1,"scaffold":"none","question":"overlap","scenario":"jones","graph":"none","condition":"4","session":"purple","experiment":"default","subject":"SW8A1","internal_node_id":"0.0-13.0","time_elapsed":2029372,"trial_index":39,"trial_type":"html","url":"../views/src/external/stimulus.html","rt":129753},{"condition":"4","session":"purple","experiment":"default","subject":"SW8A1","internal_node_id":"0.0-14.0","time_elapsed":2039462,"trial_index":40,"trial_type":"survey-text","block":"demo-1","responses":"{\"Q0\":\"20\",\"Q1\":\"China\"}","rt":9084},{"condition":"4","session":"purple","experiment":"default","subject":"SW8A1","internal_node_id":"0.0-15.0","time_elapsed":2078443,"trial_index":41,"trial_type":"survey-multi-choice","block":"demo-2","responses":"{\"Q0\":\"Mandarin or Cantonese\",\"Q1\":\"Fourth\",\"Q2\":\"Social Sciences (incl. CogSci)\",\"Q3\":\"Male\",\"Q4\":\"the second one (triangular)\"}","rt":37965},{"condition":"4","session":"purple","experiment":"default","subject":"SW8A1","internal_node_id":"0.0-16.0","time_elapsed":2132236,"trial_index":42,"trial_type":"html","block":"debrief","url":"../views/src/external/debrief.html","rt":52442}],"__v":0}
