{"_id":{"$oid":"58c4571c8dfa930004a80812"},"data":[{"condition":1,"session":"kilo","experiment":"reverse","subject":"S0MEG","internal_node_id":"0.0-0.0","time_elapsed":44300,"trial_index":0,"trial_type":"single-stim","block":"phone","key_press":32,"stimulus":"img/phone.png","rt":44291},{"condition":1,"session":"kilo","experiment":"reverse","subject":"S0MEG","internal_node_id":"0.0-1.0","time_elapsed":143698,"trial_index":1,"trial_type":"html","block":"consent","url":"../views/src/external/consent.html","rt":98301},{"condition":1,"session":"kilo","experiment":"reverse","subject":"S0MEG","internal_node_id":"0.0-2.0","time_elapsed":153880,"trial_index":2,"trial_type":"survey-text","block":"codes","responses":"{\"Q0\":\"KILO\",\"Q1\":\"1\"}","rt":9171},{"condition":1,"session":"kilo","experiment":"reverse","subject":"S0MEG","internal_node_id":"0.0-3.0","time_elapsed":165506,"trial_index":3,"trial_type":"html","block":"instructions_lab","url":"../views/src/external/instructions_lab.html","rt":10378},{"condition":1,"session":"kilo","experiment":"reverse","subject":"S0MEG","internal_node_id":"0.0-4.0","time_elapsed":173356,"trial_index":4,"trial_type":"single-stim","block":"scenario-two","key_press":13,"stimulus":"img/axis.png","rt":6848},{"block":"triangular_scaffolded","helps":0,"clicked":[["answer","clicked"],["M ","false"],["B ","false"],["J ","false"],["N ","false"],["D ","false"],["O ","false"],["K ","false"],["C ","false"],["F ","false"],["I ","false"],["H ","false"],["G ","false"],["L ","false"],["E ","false"],["A ","false"]],"answer":["G"],"correct":0,"scaffold":"describe-what","question":"start","scenario":"axis","graph":"triangular","condition":1,"session":"kilo","experiment":"reverse","subject":"S0MEG","internal_node_id":"0.0-5.0-0.0","time_elapsed":203534,"trial_index":5,"trial_type":"html","url":"../views/src/external/stimulus.html","rt":28834},{"block":"triangular_scaffolded","helps":0,"clicked":[["answer","clicked"],["M ","false"],["B ","false"],["J ","false"],["N ","false"],["D ","false"],["O ","false"],["K ","false"],["C ","false"],["F ","false"],["I ","false"],["H ","false"],["G ","false"],["L ","false"],["E ","false"],["A ","false"]],"answer":["6"],"correct":0,"scaffold":"describe-what","question":"end","scenario":"axis","graph":"triangular","condition":1,"session":"kilo","experiment":"reverse","subject":"S0MEG","internal_node_id":"0.0-5.0-1.0","time_elapsed":246509,"trial_index":6,"trial_type":"html","url":"../views/src/external/stimulus.html","rt":41718},{"block":"triangular_scaffolded","helps":0,"clicked":[["answer","clicked"],["M ","false"],["B ","false"],["J ","false"],["N ","false"],["D ","false"],["O ","false"],["K ","false"],["C ","false"],["F ","false"],["I ","false"],["H ","false"],["G ","false"],["L ","false"],["E ","false"],["A ","false"]],"answer":["C","N","O"],"correct":0,"scaffold":"describe-what","question":"duration","scenario":"axis","graph":"triangular","condition":1,"session":"kilo","experiment":"reverse","subject":"S0MEG","internal_node_id":"0.0-5.0-2.0","time_elapsed":314141,"trial_index":7,"trial_type":"html","url":"../views/src/external/stimulus.html","rt":66380},{"block":"triangular_scaffolded","helps":0,"clicked":[["answer","clicked"],["M ","false"],["B ","false"],["J ","false"],["N ","false"],["D ","false"],["O ","false"],["K ","false"],["C ","false"],["F ","false"],["I ","false"],["H ","false"],["G ","false"],["L ","false"],["E ","false"],["A ","false"]],"answer":["8"],"correct":1,"scaffold":"describe-what","question":"midpoint","scenario":"axis","graph":"triangular","condition":1,"session":"kilo","experiment":"reverse","subject":"S0MEG","internal_node_id":"0.0-5.0-3.0","time_elapsed":329298,"trial_index":8,"trial_type":"html","url":"../views/src/external/stimulus.html","rt":13754},{"block":"triangular_scaffolded","helps":0,"clicked":[["answer","clicked"],["M ","false"],["B ","false"],["J ","false"],["N ","false"],["D ","false"],["O ","false"],["K ","false"],["C ","false"],["F ","false"],["I ","false"],["H ","false"],["G ","false"],["L ","false"],["E ","false"],["A ","false"]],"answer":["8"],"correct":0,"scaffold":"describe-what","question":"start+overlap","scenario":"axis","graph":"triangular","condition":1,"session":"kilo","experiment":"reverse","subject":"S0MEG","internal_node_id":"0.0-5.0-4.0","time_elapsed":357564,"trial_index":9,"trial_type":"html","url":"../views/src/external/stimulus.html","rt":27006},{"block":"triangular_testing","helps":0,"answer":["D"],"clicked":[["answer","clicked"],["M ","false"],["B ","false"],["J ","false"],["N ","false"],["D ","false"],["O ","false"],["K ","false"],["C ","false"],["F ","false"],["I ","false"],["H ","false"],["G ","false"],["L ","false"],["E ","false"],["A ","false"]],"correct":0,"scaffold":"none","question":"during+overlap","scenario":"axis","graph":"triangular","condition":1,"session":"kilo","experiment":"reverse","subject":"S0MEG","internal_node_id":"0.0-6.0-3.0","time_elapsed":387879,"trial_index":10,"trial_type":"html","url":"../views/src/external/stimulus.html","rt":29063},{"block":"triangular_testing","helps":0,"answer":["E","H"],"clicked":[["answer","clicked"],["M ","false"],["B ","false"],["J ","false"],["N ","false"],["D ","false"],["O ","false"],["K ","false"],["C ","false"],["F ","false"],["I ","false"],["H ","false"],["G ","false"],["L ","false"],["E ","false"],["A ","false"]],"correct":0,"scaffold":"none","question":"contain+duration","scenario":"axis","graph":"triangular","condition":1,"session":"kilo","experiment":"reverse","subject":"S0MEG","internal_node_id":"0.0-6.0-4.0","time_elapsed":410510,"trial_index":11,"trial_type":"html","url":"../views/src/external/stimulus.html","rt":21380},{"block":"triangular_testing","helps":0,"answer":["H"],"clicked":[["answer","clicked"],["M ","false"],["B ","false"],["J ","false"],["N ","false"],["D ","false"],["O ","false"],["K ","false"],["C ","false"],["F ","false"],["I ","false"],["H ","false"],["G ","false"],["L ","false"],["E ","false"],["A ","false"]],"correct":0,"scaffold":"none","question":"finishes","scenario":"axis","graph":"triangular","condition":1,"session":"kilo","experiment":"reverse","subject":"S0MEG","internal_node_id":"0.0-6.0-6.0","time_elapsed":438901,"trial_index":12,"trial_type":"html","url":"../views/src/external/stimulus.html","rt":27137},{"block":"triangular_testing","helps":0,"answer":["B"],"clicked":[["answer","clicked"],["M ","false"],["B ","false"],["J ","false"],["N ","false"],["D ","false"],["O ","false"],["K ","false"],["C ","false"],["F ","false"],["I ","false"],["H ","false"],["G ","false"],["L ","false"],["E ","false"],["A ","false"]],"correct":0,"scaffold":"none","question":"overlap+overlap","scenario":"axis","graph":"triangular","condition":1,"session":"kilo","experiment":"reverse","subject":"S0MEG","internal_node_id":"0.0-6.0-2.0","time_elapsed":455168,"trial_index":13,"trial_type":"html","url":"../views/src/external/stimulus.html","rt":14901},{"block":"triangular_testing","helps":0,"answer":["O"],"clicked":[["answer","clicked"],["M ","false"],["B ","false"],["J ","false"],["N ","false"],["D ","false"],["O ","false"],["K ","false"],["C ","false"],["F ","false"],["I ","false"],["H ","false"],["G ","false"],["L ","false"],["E ","false"],["A ","false"]],"correct":0,"scaffold":"none","question":"before+overlap","scenario":"axis","graph":"triangular","condition":1,"session":"kilo","experiment":"reverse","subject":"S0MEG","internal_node_id":"0.0-6.0-1.0","time_elapsed":469798,"trial_index":14,"trial_type":"html","url":"../views/src/external/stimulus.html","rt":13380},{"block":"triangular_testing","helps":0,"answer":["M","O"],"clicked":[["answer","clicked"],["M ","false"],["B ","false"],["J ","false"],["N ","false"],["D ","false"],["O ","false"],["K ","false"],["C ","false"],["F ","false"],["I ","false"],["H ","false"],["G ","false"],["L ","false"],["E ","false"],["A ","false"]],"correct":0,"scaffold":"none","question":"meets","scenario":"axis","graph":"triangular","condition":1,"session":"kilo","experiment":"reverse","subject":"S0MEG","internal_node_id":"0.0-6.0-8.0","time_elapsed":495672,"trial_index":15,"trial_type":"html","url":"../views/src/external/stimulus.html","rt":24626},{"block":"triangular_testing","helps":0,"answer":["3"],"clicked":[["answer","clicked"],["M ","false"],["B ","false"],["J ","false"],["N ","false"],["D ","false"],["O ","false"],["K ","false"],["C ","false"],["F ","false"],["I ","false"],["H ","false"],["G ","false"],["L ","false"],["E ","false"],["A ","false"]],"correct":0,"scaffold":"none","question":"starts","scenario":"axis","graph":"triangular","condition":1,"session":"kilo","experiment":"reverse","subject":"S0MEG","internal_node_id":"0.0-6.0-5.0","time_elapsed":513355,"trial_index":16,"trial_type":"html","url":"../views/src/external/stimulus.html","rt":16432},{"block":"triangular_testing","helps":0,"answer":["A","E"],"clicked":[["answer","clicked"],["M ","false"],["B ","false"],["J ","false"],["N ","false"],["D ","false"],["O ","false"],["K ","false"],["C ","false"],["F ","false"],["I ","false"],["H ","false"],["G ","false"],["L ","false"],["E ","false"],["A ","false"]],"correct":0,"scaffold":"none","question":"during","scenario":"axis","graph":"triangular","condition":1,"session":"kilo","experiment":"reverse","subject":"S0MEG","internal_node_id":"0.0-6.0-7.0","time_elapsed":550243,"trial_index":17,"trial_type":"html","url":"../views/src/external/stimulus.html","rt":35623},{"block":"triangular_testing","helps":0,"answer":["10"],"clicked":[["answer","clicked"],["M ","false"],["B ","false"],["J ","false"],["N ","false"],["D ","false"],["O ","false"],["K ","false"],["C ","false"],["F ","false"],["I ","false"],["H ","false"],["G ","false"],["L ","false"],["E ","false"],["A ","false"]],"correct":0,"scaffold":"none","question":"start+duration","scenario":"axis","graph":"triangular","condition":1,"session":"kilo","experiment":"reverse","subject":"S0MEG","internal_node_id":"0.0-6.0-0.0","time_elapsed":571485,"trial_index":18,"trial_type":"html","url":"../views/src/external/stimulus.html","rt":19990},{"block":"triangular_testing","helps":0,"answer":["C"],"clicked":[["answer","clicked"],["M ","false"],["B ","false"],["J ","false"],["N ","false"],["D ","false"],["O ","false"],["K ","false"],["C ","false"],["F ","false"],["I ","false"],["H ","false"],["G ","false"],["L ","false"],["E ","false"],["A ","false"]],"correct":0,"scaffold":"none","question":"starts+finishes","scenario":"axis","graph":"triangular","condition":1,"session":"kilo","experiment":"reverse","subject":"S0MEG","internal_node_id":"0.0-6.0-9.0","time_elapsed":597506,"trial_index":19,"trial_type":"html","url":"../views/src/external/stimulus.html","rt":24766},{"condition":1,"session":"kilo","experiment":"reverse","subject":"S0MEG","internal_node_id":"0.0-7.0","time_elapsed":601363,"trial_index":20,"trial_type":"single-stim","block":"scenario-one","key_press":13,"stimulus":"img/longmire.png","rt":2851},{"block":"linear_scaffolded","helps":0,"clicked":[["answer","clicked"],["A ","false"],["M ","false"],["D ","false"],["N ","false"],["B ","false"],["F ","false"],["H ","false"],["G ","false"],["O ","false"],["C ","false"],["J ","false"],["I ","false"],["E ","false"],["L ","false"],["K ","false"]],"answer":["C","D","L"],"correct":1,"scaffold":"describe-what","question":"start","scenario":"longmire","graph":"linear","condition":1,"session":"kilo","experiment":"reverse","subject":"S0MEG","internal_node_id":"0.0-8.0-0.0","time_elapsed":634203,"trial_index":21,"trial_type":"html","url":"../views/src/external/stimulus.html","rt":31585},{"block":"linear_scaffolded","helps":0,"clicked":[["answer","clicked"],["A ","false"],["M ","false"],["D ","false"],["N ","false"],["B ","false"],["F ","false"],["H ","false"],["G ","false"],["O ","false"],["C ","false"],["J ","false"],["I ","false"],["E ","false"],["L ","false"],["K ","false"]],"answer":["H","J","K","L","O"],"correct":0,"scaffold":"describe-what","question":"end","scenario":"longmire","graph":"linear","condition":1,"session":"kilo","experiment":"reverse","subject":"S0MEG","internal_node_id":"0.0-8.0-1.0","time_elapsed":669856,"trial_index":22,"trial_type":"html","url":"../views/src/external/stimulus.html","rt":34400},{"block":"linear_scaffolded","helps":0,"clicked":[["answer","clicked"],["A ","false"],["M ","false"],["D ","false"],["N ","false"],["B ","false"],["F ","false"],["H ","false"],["G ","false"],["O ","false"],["C ","false"],["J ","false"],["I ","false"],["E ","false"],["L ","false"],["K ","false"]],"answer":["G","O"],"correct":1,"scaffold":"describe-what","question":"duration","scenario":"longmire","graph":"linear","condition":1,"session":"kilo","experiment":"reverse","subject":"S0MEG","internal_node_id":"0.0-8.0-2.0","time_elapsed":697442,"trial_index":23,"trial_type":"html","url":"../views/src/external/stimulus.html","rt":26335},{"block":"linear_scaffolded","helps":0,"clicked":[["answer","clicked"],["A ","false"],["M ","false"],["D ","false"],["N ","false"],["B ","false"],["F ","false"],["H ","false"],["G ","false"],["O ","false"],["C ","false"],["J ","false"],["I ","false"],["E ","false"],["L ","false"],["K ","false"]],"answer":["1"],"correct":1,"scaffold":"describe-what","question":"midpoint","scenario":"longmire","graph":"linear","condition":1,"session":"kilo","experiment":"reverse","subject":"S0MEG","internal_node_id":"0.0-8.0-3.0","time_elapsed":715242,"trial_index":24,"trial_type":"html","url":"../views/src/external/stimulus.html","rt":16538},{"block":"linear_scaffolded","helps":0,"clicked":[["answer","clicked"],["A ","false"],["M ","false"],["D ","false"],["N ","false"],["B ","false"],["F ","false"],["H ","false"],["G ","false"],["O ","false"],["C ","false"],["J ","false"],["I ","false"],["E ","false"],["L ","false"],["K ","false"]],"answer":["A"],"correct":1,"scaffold":"describe-what","question":"start+overlap","scenario":"longmire","graph":"linear","condition":1,"session":"kilo","experiment":"reverse","subject":"S0MEG","internal_node_id":"0.0-8.0-4.0","time_elapsed":740298,"trial_index":25,"trial_type":"html","url":"../views/src/external/stimulus.html","rt":23779},{"block":"linear_testing","helps":0,"clicked":[["answer","clicked"],["A ","false"],["M ","false"],["D ","false"],["N ","false"],["B ","false"],["F ","false"],["H ","false"],["G ","false"],["O ","false"],["C ","false"],["J ","false"],["I ","false"],["E ","false"],["L ","false"],["K ","false"]],"answer":["8"],"correct":0,"scaffold":"none","question":"starts","scenario":"longmire","graph":"linear","condition":1,"session":"kilo","experiment":"reverse","subject":"S0MEG","internal_node_id":"0.0-9.0-5.0","time_elapsed":782797,"trial_index":26,"trial_type":"html","url":"../views/src/external/stimulus.html","rt":41237},{"block":"linear_testing","helps":0,"clicked":[["answer","clicked"],["A ","false"],["M ","false"],["D ","false"],["N ","false"],["B ","false"],["F ","false"],["H ","false"],["G ","false"],["O ","false"],["C ","false"],["J ","false"],["I ","false"],["E ","false"],["L ","false"],["K ","false"]],"answer":["C"],"correct":1,"scaffold":"none","question":"starts+finishes","scenario":"longmire","graph":"linear","condition":1,"session":"kilo","experiment":"reverse","subject":"S0MEG","internal_node_id":"0.0-9.0-9.0","time_elapsed":798234,"trial_index":27,"trial_type":"html","url":"../views/src/external/stimulus.html","rt":14181},{"block":"linear_testing","helps":0,"clicked":[["answer","clicked"],["A ","false"],["M ","false"],["D ","false"],["N ","false"],["B ","false"],["F ","false"],["H ","false"],["G ","false"],["O ","false"],["C ","false"],["J ","false"],["I ","false"],["E ","false"],["L ","false"],["K ","false"]],"answer":["K"],"correct":0,"scaffold":"none","question":"during+overlap","scenario":"longmire","graph":"linear","condition":1,"session":"kilo","experiment":"reverse","subject":"S0MEG","internal_node_id":"0.0-9.0-3.0","time_elapsed":835080,"trial_index":28,"trial_type":"html","url":"../views/src/external/stimulus.html","rt":35595},{"block":"linear_testing","helps":0,"clicked":[["answer","clicked"],["A ","false"],["M ","false"],["D ","false"],["N ","false"],["B ","false"],["F ","false"],["H ","false"],["G ","false"],["O ","false"],["C ","false"],["J ","false"],["I ","false"],["E ","false"],["L ","false"],["K ","false"]],"answer":["G","O"],"correct":1,"scaffold":"none","question":"contain+duration","scenario":"longmire","graph":"linear","condition":1,"session":"kilo","experiment":"reverse","subject":"S0MEG","internal_node_id":"0.0-9.0-4.0","time_elapsed":884483,"trial_index":29,"trial_type":"html","url":"../views/src/external/stimulus.html","rt":48150},{"block":"linear_testing","helps":0,"clicked":[["answer","clicked"],["A ","false"],["M ","false"],["D ","false"],["N ","false"],["B ","false"],["F ","false"],["H ","false"],["G ","false"],["O ","false"],["C ","false"],["J ","false"],["I ","false"],["E ","false"],["L ","false"],["K ","false"]],"answer":["O"],"correct":1,"scaffold":"none","question":"meets","scenario":"longmire","graph":"linear","condition":1,"session":"kilo","experiment":"reverse","subject":"S0MEG","internal_node_id":"0.0-9.0-8.0","time_elapsed":917130,"trial_index":30,"trial_type":"html","url":"../views/src/external/stimulus.html","rt":31383},{"block":"linear_testing","helps":0,"clicked":[["answer","clicked"],["A ","false"],["M ","false"],["D ","false"],["N ","false"],["B ","false"],["F ","false"],["H ","false"],["G ","false"],["O ","false"],["C ","false"],["J ","false"],["I ","false"],["E ","false"],["L ","false"],["K ","false"]],"answer":[],"correct":0,"scaffold":"none","question":"overlap+overlap","scenario":"longmire","graph":"linear","condition":1,"session":"kilo","experiment":"reverse","subject":"S0MEG","internal_node_id":"0.0-9.0-2.0","time_elapsed":938940,"trial_index":31,"trial_type":"html","url":"../views/src/external/stimulus.html","rt":20552},{"block":"linear_testing","helps":0,"clicked":[["answer","clicked"],["A ","false"],["M ","false"],["D ","false"],["N ","false"],["B ","false"],["F ","false"],["H ","false"],["G ","false"],["O ","false"],["C ","false"],["J ","false"],["I ","false"],["E ","false"],["L ","false"],["K ","false"]],"answer":["4"],"correct":0,"scaffold":"none","question":"finishes","scenario":"longmire","graph":"linear","condition":1,"session":"kilo","experiment":"reverse","subject":"S0MEG","internal_node_id":"0.0-9.0-6.0","time_elapsed":963556,"trial_index":32,"trial_type":"html","url":"../views/src/external/stimulus.html","rt":23360},{"block":"linear_testing","helps":0,"clicked":[["answer","clicked"],["A ","false"],["M ","false"],["D ","false"],["N ","false"],["B ","false"],["F ","false"],["H ","false"],["G ","false"],["O ","false"],["C ","false"],["J ","false"],["I ","false"],["E ","false"],["L ","false"],["K ","false"]],"answer":["A","B","D","F"],"correct":0,"scaffold":"none","question":"before+overlap","scenario":"longmire","graph":"linear","condition":1,"session":"kilo","experiment":"reverse","subject":"S0MEG","internal_node_id":"0.0-9.0-1.0","time_elapsed":995958,"trial_index":33,"trial_type":"html","url":"../views/src/external/stimulus.html","rt":31142},{"block":"linear_testing","helps":0,"clicked":[["answer","clicked"],["A ","false"],["M ","false"],["D ","false"],["N ","false"],["B ","false"],["F ","false"],["H ","false"],["G ","false"],["O ","false"],["C ","false"],["J ","false"],["I ","false"],["E ","false"],["L ","false"],["K ","false"]],"answer":["B","C","D","F"],"correct":0,"scaffold":"none","question":"during","scenario":"longmire","graph":"linear","condition":1,"session":"kilo","experiment":"reverse","subject":"S0MEG","internal_node_id":"0.0-9.0-7.0","time_elapsed":1051085,"trial_index":34,"trial_type":"html","url":"../views/src/external/stimulus.html","rt":53872},{"block":"linear_testing","helps":0,"clicked":[["answer","clicked"],["A ","false"],["M ","false"],["D ","false"],["N ","false"],["B ","false"],["F ","false"],["H ","false"],["G ","false"],["O ","false"],["C ","false"],["J ","false"],["I ","false"],["E ","false"],["L ","false"],["K ","false"]],"answer":["A","B","D","F"],"correct":1,"scaffold":"none","question":"start+duration","scenario":"longmire","graph":"linear","condition":1,"session":"kilo","experiment":"reverse","subject":"S0MEG","internal_node_id":"0.0-9.0-0.0","time_elapsed":1081147,"trial_index":35,"trial_type":"html","url":"../views/src/external/stimulus.html","rt":28807},{"condition":1,"session":"kilo","experiment":"reverse","subject":"S0MEG","internal_node_id":"0.0-10.0","time_elapsed":1084287,"trial_index":36,"trial_type":"single-stim","block":"scenario-draw","key_press":13,"stimulus":"img/jones.png","rt":2133},{"condition":1,"session":"kilo","experiment":"reverse","subject":"S0MEG","internal_node_id":"0.0-11.0","time_elapsed":1126874,"trial_index":37,"trial_type":"html","block":"instructions_drawing","url":"../views/src/external/instructions_draw.html","rt":41493},{"block":"drawingTest","clicked":[["answer","clicked"]],"answer":[],"correct":0,"scaffold":"none","question":"duration","scenario":"jones","graph":"none","condition":1,"session":"kilo","experiment":"reverse","subject":"S0MEG","internal_node_id":"0.0-12.0","time_elapsed":1172055,"trial_index":38,"trial_type":"html","url":"../views/src/external/stimulus.html","rt":43927},{"block":"drawingTest","clicked":[["answer","clicked"]],"answer":["9-12pm"],"correct":0,"scaffold":"none","question":"overlap","scenario":"jones","graph":"none","condition":1,"session":"kilo","experiment":"reverse","subject":"S0MEG","internal_node_id":"0.0-13.0","time_elapsed":1218172,"trial_index":39,"trial_type":"html","url":"../views/src/external/stimulus.html","rt":44864},{"condition":1,"session":"kilo","experiment":"reverse","subject":"S0MEG","internal_node_id":"0.0-14.0","time_elapsed":1226063,"trial_index":40,"trial_type":"survey-text","block":"demo-1","responses":"{\"Q0\":\"20\",\"Q1\":\"US\"}","rt":6883},{"condition":1,"session":"kilo","experiment":"reverse","subject":"S0MEG","internal_node_id":"0.0-15.0","time_elapsed":1249219,"trial_index":41,"trial_type":"survey-multi-choice","block":"demo-2","responses":"{\"Q0\":\"English\",\"Q1\":\"Third\",\"Q2\":\"Social Sciences (incl. CogSci)\",\"Q3\":\"Female\",\"Q4\":\"the first one (linear\"}","rt":22145},{"condition":1,"session":"kilo","experiment":"reverse","subject":"S0MEG","internal_node_id":"0.0-16.0","time_elapsed":1255624,"trial_index":42,"trial_type":"html","block":"debrief","url":"../views/src/external/debrief.html","rt":5165}],"__v":0}
{"_id":{"$oid":"58c4589a8dfa930004a80813"},"data":[{"condition":4,"session":"kilo","experiment":"experiment","subject":"7UDVY","internal_node_id":"0.0-0.0","time_elapsed":132492,"trial_index":0,"trial_type":"single-stim","block":"phone","key_press":13,"stimulus":"img/phone.png","rt":132484},{"condition":4,"session":"kilo","experiment":"experiment","subject":"7UDVY","internal_node_id":"0.0-1.0","time_elapsed":167322,"trial_index":1,"trial_type":"html","block":"consent","url":"../views/src/external/consent.html","rt":33643},{"condition":4,"session":"kilo","experiment":"experiment","subject":"7UDVY","internal_node_id":"0.0-2.0","time_elapsed":175850,"trial_index":2,"trial_type":"survey-text","block":"codes","responses":"{\"Q0\":\"KILO\",\"Q1\":\"4\"}","rt":7521},{"condition":4,"session":"kilo","experiment":"experiment","subject":"7UDVY","internal_node_id":"0.0-3.0","time_elapsed":200355,"trial_index":3,"trial_type":"html","block":"instructions_lab","url":"../views/src/external/instructions_lab.html","rt":23413},{"condition":4,"session":"kilo","experiment":"experiment","subject":"7UDVY","internal_node_id":"0.0-4.0","time_elapsed":221737,"trial_index":4,"trial_type":"single-stim","block":"scenario-one","key_press":13,"stimulus":"img/longmire.png","rt":20378},{"block":"linear_scaffolded","helps":0,"clicked":[["answer","clicked"],["A ","false"],["M ","false"],["D ","false"],["N ","false"],["B ","false"],["F ","false"],["H ","false"],["G ","false"],["O ","false"],["C ","false"],["J ","false"],["I ","false"],["E ","false"],["L ","false"],["K ","false"]],"answer":["C","D","L"],"correct":1,"scaffold":"show-interactive","question":"start","scenario":"longmire","graph":"linear","condition":4,"session":"kilo","experiment":"experiment","subject":"7UDVY","internal_node_id":"0.0-5.0-0.0","time_elapsed":255675,"trial_index":5,"trial_type":"html","url":"../views/src/external/stimulus.html","rt":32571},{"block":"linear_scaffolded","helps":0,"clicked":[["answer","clicked"],["A ","false"],["M ","false"],["D ","false"],["N ","false"],["B ","false"],["F ","false"],["H ","false"],["G ","false"],["O ","false"],["C ","false"],["J ","false"],["I ","false"],["E ","false"],["L ","false"],["K ","false"]],"answer":["H","J","K","L","M","N","O"],"correct":1,"scaffold":"show-interactive","question":"end","scenario":"longmire","graph":"linear","condition":4,"session":"kilo","experiment":"experiment","subject":"7UDVY","internal_node_id":"0.0-5.0-1.0","time_elapsed":299319,"trial_index":6,"trial_type":"html","url":"../views/src/external/stimulus.html","rt":42393},{"block":"linear_scaffolded","helps":0,"clicked":[["answer","clicked"],["A ","false"],["M ","false"],["D ","false"],["N ","false"],["B ","false"],["F ","false"],["H ","false"],["G ","false"],["O ","false"],["C ","false"],["J ","false"],["I ","false"],["E ","false"],["L ","false"],["K ","false"]],"answer":["G","O"],"correct":1,"scaffold":"show-interactive","question":"duration","scenario":"longmire","graph":"linear","condition":4,"session":"kilo","experiment":"experiment","subject":"7UDVY","internal_node_id":"0.0-5.0-2.0","time_elapsed":322331,"trial_index":7,"trial_type":"html","url":"../views/src/external/stimulus.html","rt":21757},{"block":"linear_scaffolded","helps":0,"clicked":[["answer","clicked"],["A ","false"],["M ","false"],["D ","false"],["N ","false"],["B ","false"],["F ","false"],["H ","false"],["G ","false"],["O ","false"],["C ","false"],["J ","false"],["I ","false"],["E ","false"],["L ","false"],["K ","false"]],"answer":["1"],"correct":1,"scaffold":"show-interactive","question":"midpoint","scenario":"longmire","graph":"linear","condition":4,"session":"kilo","experiment":"experiment","subject":"7UDVY","internal_node_id":"0.0-5.0-3.0","time_elapsed":344844,"trial_index":8,"trial_type":"html","url":"../views/src/external/stimulus.html","rt":21267},{"block":"linear_scaffolded","helps":0,"clicked":[["answer","clicked"],["A ","false"],["M ","false"],["D ","false"],["N ","false"],["B ","false"],["F ","false"],["H ","false"],["G ","false"],["O ","false"],["C ","false"],["J ","false"],["I ","false"],["E ","false"],["L ","false"],["K ","false"]],"answer":["O"],"correct":0,"scaffold":"show-interactive","question":"start+overlap","scenario":"longmire","graph":"linear","condition":4,"session":"kilo","experiment":"experiment","subject":"7UDVY","internal_node_id":"0.0-5.0-4.0","time_elapsed":360870,"trial_index":9,"trial_type":"html","url":"../views/src/external/stimulus.html","rt":14778},{"block":"linear_testing","helps":0,"clicked":[["answer","clicked"],["A ","false"],["M ","false"],["D ","false"],["N ","false"],["B ","false"],["F ","false"],["H ","false"],["G ","false"],["O ","false"],["C ","false"],["J ","false"],["I ","false"],["E ","false"],["L ","false"],["K ","false"]],"answer":["A","B","D","F"],"correct":1,"scaffold":"none","question":"start+duration","scenario":"longmire","graph":"linear","condition":4,"session":"kilo","experiment":"experiment","subject":"7UDVY","internal_node_id":"0.0-6.0-0.0","time_elapsed":392214,"trial_index":10,"trial_type":"html","url":"../views/src/external/stimulus.html","rt":30100},{"block":"linear_testing","helps":0,"clicked":[["answer","clicked"],["A ","false"],["M ","false"],["D ","false"],["N ","false"],["B ","false"],["F ","false"],["H ","false"],["G ","false"],["O ","false"],["C ","false"],["J ","false"],["I ","false"],["E ","false"],["L ","false"],["K ","false"]],"answer":["A","M","N"],"correct":1,"scaffold":"none","question":"overlap+overlap","scenario":"longmire","graph":"linear","condition":4,"session":"kilo","experiment":"experiment","subject":"7UDVY","internal_node_id":"0.0-6.0-2.0","time_elapsed":425246,"trial_index":11,"trial_type":"html","url":"../views/src/external/stimulus.html","rt":31772},{"block":"linear_testing","helps":0,"clicked":[["answer","clicked"],["A ","false"],["M ","false"],["D ","false"],["N ","false"],["B ","false"],["F ","false"],["H ","false"],["G ","false"],["O ","false"],["C ","false"],["J ","false"],["I ","false"],["E ","false"],["L ","false"],["K ","false"]],"answer":["G","O"],"correct":1,"scaffold":"none","question":"contain+duration","scenario":"longmire","graph":"linear","condition":4,"session":"kilo","experiment":"experiment","subject":"7UDVY","internal_node_id":"0.0-6.0-4.0","time_elapsed":455440,"trial_index":12,"trial_type":"html","url":"../views/src/external/stimulus.html","rt":28947},{"block":"linear_testing","helps":0,"clicked":[["answer","clicked"],["A ","false"],["M ","false"],["D ","false"],["N ","false"],["B ","false"],["F ","false"],["H ","false"],["G ","false"],["O ","false"],["C ","false"],["J ","false"],["I ","false"],["E ","false"],["L ","false"],["K ","false"]],"answer":["B","C","D","E","F","G","H","I","J","K","L","O"],"correct":0,"scaffold":"none","question":"during","scenario":"longmire","graph":"linear","condition":4,"session":"kilo","experiment":"experiment","subject":"7UDVY","internal_node_id":"0.0-6.0-7.0","time_elapsed":513974,"trial_index":13,"trial_type":"html","url":"../views/src/external/stimulus.html","rt":57283},{"block":"linear_testing","helps":0,"clicked":[["answer","clicked"],["A ","false"],["M ","false"],["D ","false"],["N ","false"],["B ","false"],["F ","false"],["H ","false"],["G ","false"],["O ","false"],["C ","false"],["J ","false"],["I ","false"],["E ","false"],["L ","false"],["K ","false"]],"answer":["K","L"],"correct":1,"scaffold":"none","question":"during+overlap","scenario":"longmire","graph":"linear","condition":4,"session":"kilo","experiment":"experiment","subject":"7UDVY","internal_node_id":"0.0-6.0-3.0","time_elapsed":542722,"trial_index":14,"trial_type":"html","url":"../views/src/external/stimulus.html","rt":27499},{"block":"linear_testing","helps":0,"clicked":[["answer","clicked"],["A ","false"],["M ","false"],["D ","false"],["N ","false"],["B ","false"],["F ","false"],["H ","false"],["G ","false"],["O ","false"],["C ","false"],["J ","false"],["I ","false"],["E ","false"],["L ","false"],["K ","false"]],"answer":["6","8"],"correct":1,"scaffold":"none","question":"starts","scenario":"longmire","graph":"linear","condition":4,"session":"kilo","experiment":"experiment","subject":"7UDVY","internal_node_id":"0.0-6.0-5.0","time_elapsed":585191,"trial_index":15,"trial_type":"html","url":"../views/src/external/stimulus.html","rt":41222},{"block":"linear_testing","helps":0,"clicked":[["answer","clicked"],["A ","false"],["M ","false"],["D ","false"],["N ","false"],["B ","false"],["F ","false"],["H ","false"],["G ","false"],["O ","false"],["C ","false"],["J ","false"],["I ","false"],["E ","false"],["L ","false"],["K ","false"]],"answer":["O"],"correct":1,"scaffold":"none","question":"meets","scenario":"longmire","graph":"linear","condition":4,"session":"kilo","experiment":"experiment","subject":"7UDVY","internal_node_id":"0.0-6.0-8.0","time_elapsed":601518,"trial_index":16,"trial_type":"html","url":"../views/src/external/stimulus.html","rt":15081},{"block":"linear_testing","helps":0,"clicked":[["answer","clicked"],["A ","false"],["M ","false"],["D ","false"],["N ","false"],["B ","false"],["F ","false"],["H ","false"],["G ","false"],["O ","false"],["C ","false"],["J ","false"],["I ","false"],["E ","false"],["L ","false"],["K ","false"]],"answer":["A","B","C","D","F","I"],"correct":1,"scaffold":"none","question":"before+overlap","scenario":"longmire","graph":"linear","condition":4,"session":"kilo","experiment":"experiment","subject":"7UDVY","internal_node_id":"0.0-6.0-1.0","time_elapsed":644008,"trial_index":17,"trial_type":"html","url":"../views/src/external/stimulus.html","rt":41240},{"block":"linear_testing","helps":0,"clicked":[["answer","clicked"],["A ","false"],["M ","false"],["D ","false"],["N ","false"],["B ","false"],["F ","false"],["H ","false"],["G ","false"],["O ","false"],["C ","false"],["J ","false"],["I ","false"],["E ","false"],["L ","false"],["K ","false"]],"answer":["4","5"],"correct":1,"scaffold":"none","question":"finishes","scenario":"longmire","graph":"linear","condition":4,"session":"kilo","experiment":"experiment","subject":"7UDVY","internal_node_id":"0.0-6.0-6.0","time_elapsed":695326,"trial_index":18,"trial_type":"html","url":"../views/src/external/stimulus.html","rt":50070},{"block":"linear_testing","helps":0,"clicked":[["answer","clicked"],["A ","false"],["M ","false"],["D ","false"],["N ","false"],["B ","false"],["F ","false"],["H ","false"],["G ","false"],["O ","false"],["C ","false"],["J ","false"],["I ","false"],["E ","false"],["L ","false"],["K ","false"]],"answer":["C"],"correct":1,"scaffold":"none","question":"starts+finishes","scenario":"longmire","graph":"linear","condition":4,"session":"kilo","experiment":"experiment","subject":"7UDVY","internal_node_id":"0.0-6.0-9.0","time_elapsed":710541,"trial_index":19,"trial_type":"html","url":"../views/src/external/stimulus.html","rt":13964},{"condition":4,"session":"kilo","experiment":"experiment","subject":"7UDVY","internal_node_id":"0.0-7.0","time_elapsed":729825,"trial_index":20,"trial_type":"single-stim","block":"scenario-two","key_press":13,"stimulus":"img/axis.png","rt":18280},{"block":"triangular_scaffolded","helps":0,"clicked":[["answer","clicked"],["M ","false"],["B ","false"],["J ","false"],["N ","false"],["D ","false"],["O ","false"],["K ","false"],["C ","false"],["F ","false"],["I ","false"],["H ","false"],["G ","false"],["L ","false"],["E ","false"],["A ","false"]],"answer":["H","M","O"],"correct":0,"scaffold":"show-interactive","question":"start","scenario":"axis","graph":"triangular","condition":4,"session":"kilo","experiment":"experiment","subject":"7UDVY","internal_node_id":"0.0-8.0-0.0","time_elapsed":771277,"trial_index":21,"trial_type":"html","url":"../views/src/external/stimulus.html","rt":40206},{"block":"triangular_scaffolded","helps":0,"clicked":[["answer","clicked"],["M ","false"],["B ","false"],["J ","false"],["N ","false"],["D ","false"],["O ","false"],["K ","false"],["C ","false"],["F ","false"],["I ","false"],["H ","false"],["G ","false"],["L ","false"],["E ","false"],["A ","false"]],"answer":["4"],"correct":1,"scaffold":"show-interactive","question":"end","scenario":"axis","graph":"triangular","condition":4,"session":"kilo","experiment":"experiment","subject":"7UDVY","internal_node_id":"0.0-8.0-1.0","time_elapsed":783550,"trial_index":22,"trial_type":"html","url":"../views/src/external/stimulus.html","rt":11024},{"block":"triangular_scaffolded","helps":0,"clicked":[["answer","clicked"],["M ","false"],["B ","false"],["J ","false"],["N ","false"],["D ","false"],["O ","false"],["K ","false"],["C ","false"],["F ","false"],["I ","false"],["H ","false"],["G ","false"],["L ","false"],["E ","false"],["A ","false"]],"answer":["A","C","E","F","G","H","I","K","L"],"correct":1,"scaffold":"show-interactive","question":"duration","scenario":"axis","graph":"triangular","condition":4,"session":"kilo","experiment":"experiment","subject":"7UDVY","internal_node_id":"0.0-8.0-2.0","time_elapsed":812809,"trial_index":23,"trial_type":"html","url":"../views/src/external/stimulus.html","rt":27995},{"block":"triangular_scaffolded","helps":0,"clicked":[["answer","clicked"],["M ","false"],["B ","false"],["J ","false"],["N ","false"],["D ","false"],["O ","false"],["K ","false"],["C ","false"],["F ","false"],["I ","false"],["H ","false"],["G ","false"],["L ","false"],["E ","false"],["A ","false"]],"answer":["8"],"correct":1,"scaffold":"show-interactive","question":"midpoint","scenario":"axis","graph":"triangular","condition":4,"session":"kilo","experiment":"experiment","subject":"7UDVY","internal_node_id":"0.0-8.0-3.0","time_elapsed":837841,"trial_index":24,"trial_type":"html","url":"../views/src/external/stimulus.html","rt":23780},{"block":"triangular_scaffolded","helps":0,"clicked":[["answer","clicked"],["M ","false"],["B ","false"],["J ","false"],["N ","false"],["D ","false"],["O ","false"],["K ","false"],["C ","false"],["F ","false"],["I ","false"],["H ","false"],["G ","false"],["L ","false"],["E ","false"],["A ","false"]],"answer":["1"],"correct":0,"scaffold":"show-interactive","question":"start+overlap","scenario":"axis","graph":"triangular","condition":4,"session":"kilo","experiment":"experiment","subject":"7UDVY","internal_node_id":"0.0-8.0-4.0","time_elapsed":880370,"trial_index":25,"trial_type":"html","url":"../views/src/external/stimulus.html","rt":41259},{"block":"triangular_testing","helps":0,"answer":["G"],"clicked":[["answer","clicked"],["M ","false"],["B ","false"],["J ","false"],["N ","false"],["D ","false"],["O ","false"],["K ","false"],["C ","false"],["F ","false"],["I ","false"],["H ","false"],["G ","false"],["L ","false"],["E ","false"],["A ","false"]],"correct":1,"scaffold":"none","question":"starts+finishes","scenario":"axis","graph":"triangular","condition":4,"session":"kilo","experiment":"experiment","subject":"7UDVY","internal_node_id":"0.0-9.0-9.0","time_elapsed":901707,"trial_index":26,"trial_type":"html","url":"../views/src/external/stimulus.html","rt":20086},{"block":"triangular_testing","helps":0,"answer":["F","G","H","L","M","O"],"clicked":[["answer","clicked"],["M ","false"],["B ","false"],["J ","false"],["N ","false"],["D ","false"],["O ","false"],["K ","false"],["C ","false"],["F ","false"],["I ","false"],["H ","false"],["G ","false"],["L ","false"],["E ","false"],["A ","false"]],"correct":0,"scaffold":"none","question":"before+overlap","scenario":"axis","graph":"triangular","condition":4,"session":"kilo","experiment":"experiment","subject":"7UDVY","internal_node_id":"0.0-9.0-1.0","time_elapsed":1018314,"trial_index":27,"trial_type":"html","url":"../views/src/external/stimulus.html","rt":115342},{"block":"triangular_testing","helps":0,"answer":["F","M","O"],"clicked":[["answer","clicked"],["M ","false"],["B ","false"],["J ","false"],["N ","false"],["D ","false"],["O ","false"],["K ","false"],["C ","false"],["F ","false"],["I ","false"],["H ","false"],["G ","false"],["L ","false"],["E ","false"],["A ","false"]],"correct":1,"scaffold":"none","question":"during","scenario":"axis","graph":"triangular","condition":4,"session":"kilo","experiment":"experiment","subject":"7UDVY","internal_node_id":"0.0-9.0-7.0","time_elapsed":1041632,"trial_index":28,"trial_type":"html","url":"../views/src/external/stimulus.html","rt":21909},{"block":"triangular_testing","helps":0,"answer":["6"],"clicked":[["answer","clicked"],["M ","false"],["B ","false"],["J ","false"],["N ","false"],["D ","false"],["O ","false"],["K ","false"],["C ","false"],["F ","false"],["I ","false"],["H ","false"],["G ","false"],["L ","false"],["E ","false"],["A ","false"]],"correct":1,"scaffold":"none","question":"starts","scenario":"axis","graph":"triangular","condition":4,"session":"kilo","experiment":"experiment","subject":"7UDVY","internal_node_id":"0.0-9.0-5.0","time_elapsed":1075682,"trial_index":29,"trial_type":"html","url":"../views/src/external/stimulus.html","rt":32801},{"block":"triangular_testing","helps":0,"answer":["A"],"clicked":[["answer","clicked"],["M ","false"],["B ","false"],["J ","false"],["N ","false"],["D ","false"],["O ","false"],["K ","false"],["C ","false"],["F ","false"],["I ","false"],["H ","false"],["G ","false"],["L ","false"],["E ","false"],["A ","false"]],"correct":1,"scaffold":"none","question":"during+overlap","scenario":"axis","graph":"triangular","condition":4,"session":"kilo","experiment":"experiment","subject":"7UDVY","internal_node_id":"0.0-9.0-3.0","time_elapsed":1115317,"trial_index":30,"trial_type":"html","url":"../views/src/external/stimulus.html","rt":38388},{"block":"triangular_testing","helps":0,"answer":["F","G","M","O"],"clicked":[["answer","clicked"],["M ","false"],["B ","false"],["J ","false"],["N ","false"],["D ","false"],["O ","false"],["K ","false"],["C ","false"],["F ","false"],["I ","false"],["H ","false"],["G ","false"],["L ","false"],["E ","false"],["A ","false"]],"correct":0,"scaffold":"none","question":"meets","scenario":"axis","graph":"triangular","condition":4,"session":"kilo","experiment":"experiment","subject":"7UDVY","internal_node_id":"0.0-9.0-8.0","time_elapsed":1168209,"trial_index":31,"trial_type":"html","url":"../views/src/external/stimulus.html","rt":51644},{"block":"triangular_testing","helps":0,"answer":["A","B","C","E"],"clicked":[["answer","clicked"],["M ","false"],["B ","false"],["J ","false"],["N ","false"],["D ","false"],["O ","false"],["K ","false"],["C ","false"],["F ","false"],["I ","false"],["H ","false"],["G ","false"],["L ","false"],["E ","false"],["A ","false"]],"correct":0,"scaffold":"none","question":"overlap+overlap","scenario":"axis","graph":"triangular","condition":4,"session":"kilo","experiment":"experiment","subject":"7UDVY","internal_node_id":"0.0-9.0-2.0","time_elapsed":1206928,"trial_index":32,"trial_type":"html","url":"../views/src/external/stimulus.html","rt":37472},{"block":"triangular_testing","helps":0,"answer":["9"],"clicked":[["answer","clicked"],["M ","false"],["B ","false"],["J ","false"],["N ","false"],["D ","false"],["O ","false"],["K ","false"],["C ","false"],["F ","false"],["I ","false"],["H ","false"],["G ","false"],["L ","false"],["E ","false"],["A ","false"]],"correct":1,"scaffold":"none","question":"start+duration","scenario":"axis","graph":"triangular","condition":4,"session":"kilo","experiment":"experiment","subject":"7UDVY","internal_node_id":"0.0-9.0-0.0","time_elapsed":1235147,"trial_index":33,"trial_type":"html","url":"../views/src/external/stimulus.html","rt":26971},{"block":"triangular_testing","helps":0,"answer":["D","M","N","O"],"clicked":[["answer","clicked"],["M ","false"],["B ","false"],["J ","false"],["N ","false"],["D ","false"],["O ","false"],["K ","false"],["C ","false"],["F ","false"],["I ","false"],["H ","false"],["G ","false"],["L ","false"],["E ","false"],["A ","false"]],"correct":1,"scaffold":"none","question":"contain+duration","scenario":"axis","graph":"triangular","condition":4,"session":"kilo","experiment":"experiment","subject":"7UDVY","internal_node_id":"0.0-9.0-4.0","time_elapsed":1266842,"trial_index":34,"trial_type":"html","url":"../views/src/external/stimulus.html","rt":30452},{"block":"triangular_testing","helps":0,"answer":["G","O"],"clicked":[["answer","clicked"],["M ","false"],["B ","false"],["J ","false"],["N ","false"],["D ","false"],["O ","false"],["K ","false"],["C ","false"],["F ","false"],["I ","false"],["H ","false"],["G ","false"],["L ","false"],["E ","false"],["A ","false"]],"correct":1,"scaffold":"none","question":"finishes","scenario":"axis","graph":"triangular","condition":4,"session":"kilo","experiment":"experiment","subject":"7UDVY","internal_node_id":"0.0-9.0-6.0","time_elapsed":1281931,"trial_index":35,"trial_type":"html","url":"../views/src/external/stimulus.html","rt":13848},{"condition":4,"session":"kilo","experiment":"experiment","subject":"7UDVY","internal_node_id":"0.0-10.0","time_elapsed":1310970,"trial_index":36,"trial_type":"single-stim","block":"scenario-draw","key_press":13,"stimulus":"img/jones.png","rt":28034},{"condition":4,"session":"kilo","experiment":"experiment","subject":"7UDVY","internal_node_id":"0.0-11.0","time_elapsed":1423368,"trial_index":37,"trial_type":"html","block":"instructions_drawing","url":"../views/src/external/instructions_draw.html","rt":111306},{"block":"drawingTest","clicked":[["answer","clicked"]],"answer":["A1","B1","C1","D2","E2","F3","G3","H3"],"correct":0,"scaffold":"none","question":"duration","scenario":"jones","graph":"none","condition":4,"session":"kilo","experiment":"experiment","subject":"7UDVY","internal_node_id":"0.0-12.0","time_elapsed":1507852,"trial_index":38,"trial_type":"html","url":"../views/src/external/stimulus.html","rt":83155},{"block":"drawingTest","clicked":[["answer","clicked"]],"answer":["Xiao","1-3pm","3-4pm"],"correct":0,"scaffold":"none","question":"overlap","scenario":"jones","graph":"none","condition":4,"session":"kilo","experiment":"experiment","subject":"7UDVY","internal_node_id":"0.0-13.0","time_elapsed":1590780,"trial_index":39,"trial_type":"html","url":"../views/src/external/stimulus.html","rt":81593},{"condition":4,"session":"kilo","experiment":"experiment","subject":"7UDVY","internal_node_id":"0.0-14.0","time_elapsed":1598102,"trial_index":40,"trial_type":"survey-text","block":"demo-1","responses":"{\"Q0\":\"22\",\"Q1\":\"USA\"}","rt":6319},{"condition":4,"session":"kilo","experiment":"experiment","subject":"7UDVY","internal_node_id":"0.0-15.0","time_elapsed":1617636,"trial_index":41,"trial_type":"survey-multi-choice","block":"demo-2","responses":"{\"Q0\":\"English\",\"Q1\":\"Fourth\",\"Q2\":\"Social Sciences (incl. CogSci)\",\"Q3\":\"Female\",\"Q4\":\"the second one (triangular)\"}","rt":18516},{"condition":4,"session":"kilo","experiment":"experiment","subject":"7UDVY","internal_node_id":"0.0-16.0","time_elapsed":1625400,"trial_index":42,"trial_type":"html","block":"debrief","url":"../views/src/external/debrief.html","rt":6600}],"__v":0}
{"_id":{"$oid":"58c4599a8dfa930004a80814"},"data":[{"condition":4,"session":"kilo","experiment":"reverse","subject":"4S72Y","internal_node_id":"0.0-0.0","time_elapsed":136119,"trial_index":0,"trial_type":"single-stim","block":"phone","key_press":13,"stimulus":"img/phone.png","rt":136110},{"condition":4,"session":"kilo","experiment":"reverse","subject":"4S72Y","internal_node_id":"0.0-1.0","time_elapsed":145741,"trial_index":1,"trial_type":"html","block":"consent","url":"../views/src/external/consent.html","rt":8423},{"condition":4,"session":"kilo","experiment":"reverse","subject":"4S72Y","internal_node_id":"0.0-2.0","time_elapsed":155469,"trial_index":2,"trial_type":"survey-text","block":"codes","responses":"{\"Q0\":\"KILO\",\"Q1\":\"4\"}","rt":8715},{"condition":4,"session":"kilo","experiment":"reverse","subject":"4S72Y","internal_node_id":"0.0-3.0","time_elapsed":169342,"trial_index":3,"trial_type":"html","block":"instructions_lab","url":"../views/src/external/instructions_lab.html","rt":12776},{"condition":4,"session":"kilo","experiment":"reverse","subject":"4S72Y","internal_node_id":"0.0-4.0","time_elapsed":192000,"trial_index":4,"trial_type":"single-stim","block":"scenario-two","key_press":13,"stimulus":"img/axis.png","rt":21656},{"block":"triangular_scaffolded","helps":0,"clicked":[["answer","clicked"],["M ","false"],["B ","false"],["J ","false"],["N ","false"],["D ","false"],["O ","false"],["K ","false"],["C ","false"],["F ","false"],["I ","false"],["H ","false"],["G ","false"],["L ","false"],["E ","false"],["A ","false"]],"answer":["G"],"correct":0,"scaffold":"show-interactive","question":"start","scenario":"axis","graph":"triangular","condition":4,"session":"kilo","experiment":"reverse","subject":"4S72Y","internal_node_id":"0.0-5.0-0.0","time_elapsed":224462,"trial_index":5,"trial_type":"html","url":"../views/src/external/stimulus.html","rt":31068},{"block":"triangular_scaffolded","helps":0,"clicked":[["answer","clicked"],["M ","false"],["B ","false"],["J ","false"],["N ","false"],["D ","false"],["O ","false"],["K ","false"],["C ","false"],["F ","false"],["I ","false"],["H ","false"],["G ","false"],["L ","false"],["E ","false"],["A ","false"]],"answer":["4"],"correct":1,"scaffold":"show-interactive","question":"end","scenario":"axis","graph":"triangular","condition":4,"session":"kilo","experiment":"reverse","subject":"4S72Y","internal_node_id":"0.0-5.0-1.0","time_elapsed":251237,"trial_index":6,"trial_type":"html","url":"../views/src/external/stimulus.html","rt":25521},{"block":"triangular_scaffolded","helps":0,"clicked":[["answer","clicked"],["M ","false"],["B ","false"],["J ","false"],["N ","false"],["D ","false"],["O ","false"],["K ","false"],["C ","false"],["F ","false"],["I ","false"],["H ","false"],["G ","false"],["L ","false"],["E ","false"],["A ","false"]],"answer":["A","C","E","F","G","H","I","K","L"],"correct":1,"scaffold":"show-interactive","question":"duration","scenario":"axis","graph":"triangular","condition":4,"session":"kilo","experiment":"reverse","subject":"4S72Y","internal_node_id":"0.0-5.0-2.0","time_elapsed":292730,"trial_index":7,"trial_type":"html","url":"../views/src/external/stimulus.html","rt":40230},{"block":"triangular_scaffolded","helps":0,"clicked":[["answer","clicked"],["M ","false"],["B ","false"],["J ","false"],["N ","false"],["D ","false"],["O ","false"],["K ","false"],["C ","false"],["F ","false"],["I ","false"],["H ","false"],["G ","false"],["L ","false"],["E ","false"],["A ","false"]],"answer":["8"],"correct":1,"scaffold":"show-interactive","question":"midpoint","scenario":"axis","graph":"triangular","condition":4,"session":"kilo","experiment":"reverse","subject":"4S72Y","internal_node_id":"0.0-5.0-3.0","time_elapsed":314224,"trial_index":8,"trial_type":"html","url":"../views/src/external/stimulus.html","rt":20242},{"block":"triangular_scaffolded","helps":0,"clicked":[["answer","clicked"],["M ","false"],["B ","false"],["J ","false"],["N ","false"],["D ","false"],["O ","false"],["K ","false"],["C ","false"],["F ","false"],["I ","false"],["H ","false"],["G ","false"],["L ","false"],["E ","false"],["A ","false"]],"answer":["7","10"],"correct":0,"scaffold":"show-interactive","question":"start+overlap","scenario":"axis","graph":"triangular","condition":4,"session":"kilo","experiment":"reverse","subject":"4S72Y","internal_node_id":"0.0-5.0-4.0","time_elapsed":357362,"trial_index":9,"trial_type":"html","url":"../views/src/external/stimulus.html","rt":41887},{"block":"triangular_testing","helps":0,"answer":["D","M","N","O"],"clicked":[["answer","clicked"],["M ","false"],["B ","false"],["J ","false"],["N ","false"],["D ","false"],["O ","false"],["K ","false"],["C ","false"],["F ","false"],["I ","false"],["H ","false"],["G ","false"],["L ","false"],["E ","false"],["A ","false"]],"correct":1,"scaffold":"none","question":"contain+duration","scenario":"axis","graph":"triangular","condition":4,"session":"kilo","experiment":"reverse","subject":"4S72Y","internal_node_id":"0.0-6.0-4.0","time_elapsed":407912,"trial_index":10,"trial_type":"html","url":"../views/src/external/stimulus.html","rt":49304},{"block":"triangular_testing","helps":0,"answer":["A"],"clicked":[["answer","clicked"],["M ","false"],["B ","false"],["J ","false"],["N ","false"],["D ","false"],["O ","false"],["K ","false"],["C ","false"],["F ","false"],["I ","false"],["H ","false"],["G ","false"],["L ","false"],["E ","false"],["A ","false"]],"correct":1,"scaffold":"none","question":"during+overlap","scenario":"axis","graph":"triangular","condition":4,"session":"kilo","experiment":"reverse","subject":"4S72Y","internal_node_id":"0.0-6.0-3.0","time_elapsed":428585,"trial_index":11,"trial_type":"html","url":"../views/src/external/stimulus.html","rt":19402},{"block":"triangular_testing","helps":0,"answer":["F","G","M","O"],"clicked":[["answer","clicked"],["M ","false"],["B ","false"],["J ","false"],["N ","false"],["D ","false"],["O ","false"],["K ","false"],["C ","false"],["F ","false"],["I ","false"],["H ","false"],["G ","false"],["L ","false"],["E ","false"],["A ","false"]],"correct":1,"scaffold":"none","question":"before+overlap","scenario":"axis","graph":"triangular","condition":4,"session":"kilo","experiment":"reverse","subject":"4S72Y","internal_node_id":"0.0-6.0-1.0","time_elapsed":501284,"trial_index":12,"trial_type":"html","url":"../views/src/external/stimulus.html","rt":71452},{"block":"triangular_testing","helps":0,"answer":["9"],"clicked":[["answer","clicked"],["M ","false"],["B ","false"],["J ","false"],["N ","false"],["D ","false"],["O ","false"],["K ","false"],["C ","false"],["F ","false"],["I ","false"],["H ","false"],["G ","false"],["L ","false"],["E ","false"],["A ","false"]],"correct":1,"scaffold":"none","question":"start+duration","scenario":"axis","graph":"triangular","condition":4,"session":"kilo","experiment":"reverse","subject":"4S72Y","internal_node_id":"0.0-6.0-0.0","time_elapsed":527382,"trial_index":13,"trial_type":"html","url":"../views/src/external/stimulus.html","rt":24740},{"block":"triangular_testing","helps":0,"answer":["G","O"],"clicked":[["answer","clicked"],["M ","false"],["B ","false"],["J ","false"],["N ","false"],["D ","false"],["O ","false"],["K ","false"],["C ","false"],["F ","false"],["I ","false"],["H ","false"],["G ","false"],["L ","false"],["E ","false"],["A ","false"]],"correct":1,"scaffold":"none","question":"finishes","scenario":"axis","graph":"triangular","condition":4,"session":"kilo","experiment":"reverse","subject":"4S72Y","internal_node_id":"0.0-6.0-6.0","time_elapsed":541528,"trial_index":14,"trial_type":"html","url":"../views/src/external/stimulus.html","rt":12891},{"block":"triangular_testing","helps":0,"answer":["6"],"clicked":[["answer","clicked"],["M ","false"],["B ","false"],["J ","false"],["N ","false"],["D ","false"],["O ","false"],["K ","false"],["C ","false"],["F ","false"],["I ","false"],["H ","false"],["G ","false"],["L ","false"],["E ","false"],["A ","false"]],"correct":1,"scaffold":"none","question":"starts","scenario":"axis","graph":"triangular","condition":4,"session":"kilo","experiment":"reverse","subject":"4S72Y","internal_node_id":"0.0-6.0-5.0","time_elapsed":560350,"trial_index":15,"trial_type":"html","url":"../views/src/external/stimulus.html","rt":17567},{"block":"triangular_testing","helps":0,"answer":["G"],"clicked":[["answer","clicked"],["M ","false"],["B ","false"],["J ","false"],["N ","false"],["D ","false"],["O ","false"],["K ","false"],["C ","false"],["F ","false"],["I ","false"],["H ","false"],["G ","false"],["L ","false"],["E ","false"],["A ","false"]],"correct":1,"scaffold":"none","question":"meets","scenario":"axis","graph":"triangular","condition":4,"session":"kilo","experiment":"reverse","subject":"4S72Y","internal_node_id":"0.0-6.0-8.0","time_elapsed":600871,"trial_index":16,"trial_type":"html","url":"../views/src/external/stimulus.html","rt":39257},{"block":"triangular_testing","helps":0,"answer":["F","M","O"],"clicked":[["answer","clicked"],["M ","false"],["B ","false"],["J ","false"],["N ","false"],["D ","false"],["O ","false"],["K ","false"],["C ","false"],["F ","false"],["I ","false"],["H ","false"],["G ","false"],["L ","false"],["E ","false"],["A ","false"]],"correct":1,"scaffold":"none","question":"during","scenario":"axis","graph":"triangular","condition":4,"session":"kilo","experiment":"reverse","subject":"4S72Y","internal_node_id":"0.0-6.0-7.0","time_elapsed":616625,"trial_index":17,"trial_type":"html","url":"../views/src/external/stimulus.html","rt":14359},{"block":"triangular_testing","helps":0,"answer":["B","C","E","J"],"clicked":[["answer","clicked"],["M ","false"],["B ","false"],["J ","false"],["N ","false"],["D ","false"],["O ","false"],["K ","false"],["C ","false"],["F ","false"],["I ","false"],["H ","false"],["G ","false"],["L ","false"],["E ","false"],["A ","false"]],"correct":0,"scaffold":"none","question":"overlap+overlap","scenario":"axis","graph":"triangular","condition":4,"session":"kilo","experiment":"reverse","subject":"4S72Y","internal_node_id":"0.0-6.0-2.0","time_elapsed":644549,"trial_index":18,"trial_type":"html","url":"../views/src/external/stimulus.html","rt":26674},{"block":"triangular_testing","helps":0,"answer":["G"],"clicked":[["answer","clicked"],["M ","false"],["B ","false"],["J ","false"],["N ","false"],["D ","false"],["O ","false"],["K ","false"],["C ","false"],["F ","false"],["I ","false"],["H ","false"],["G ","false"],["L ","false"],["E ","false"],["A ","false"]],"correct":1,"scaffold":"none","question":"starts+finishes","scenario":"axis","graph":"triangular","condition":4,"session":"kilo","experiment":"reverse","subject":"4S72Y","internal_node_id":"0.0-6.0-9.0","time_elapsed":659764,"trial_index":19,"trial_type":"html","url":"../views/src/external/stimulus.html","rt":13968},{"condition":4,"session":"kilo","experiment":"reverse","subject":"4S72Y","internal_node_id":"0.0-7.0","time_elapsed":669137,"trial_index":20,"trial_type":"single-stim","block":"scenario-one","key_press":13,"stimulus":"img/longmire.png","rt":8368},{"block":"linear_scaffolded","helps":0,"clicked":[["answer","clicked"],["A ","false"],["M ","false"],["D ","false"],["N ","false"],["B ","false"],["F ","false"],["H ","false"],["G ","false"],["O ","false"],["C ","false"],["J ","false"],["I ","false"],["E ","false"],["L ","false"],["K ","false"]],"answer":["C","D","L"],"correct":1,"scaffold":"show-interactive","question":"start","scenario":"longmire","graph":"linear","condition":4,"session":"kilo","experiment":"reverse","subject":"4S72Y","internal_node_id":"0.0-8.0-0.0","time_elapsed":690158,"trial_index":21,"trial_type":"html","url":"../views/src/external/stimulus.html","rt":19759},{"block":"linear_scaffolded","helps":0,"clicked":[["answer","clicked"],["A ","false"],["M ","false"],["D ","false"],["N ","false"],["B ","false"],["F ","false"],["H ","false"],["G ","false"],["O ","false"],["C ","false"],["J ","false"],["I ","false"],["E ","false"],["L ","false"],["K ","false"]],"answer":["H","J","K","L","M","N","O"],"correct":1,"scaffold":"show-interactive","question":"end","scenario":"longmire","graph":"linear","condition":4,"session":"kilo","experiment":"reverse","subject":"4S72Y","internal_node_id":"0.0-8.0-1.0","time_elapsed":720822,"trial_index":22,"trial_type":"html","url":"../views/src/external/stimulus.html","rt":29413},{"block":"linear_scaffolded","helps":0,"clicked":[["answer","clicked"],["A ","false"],["M ","false"],["D ","false"],["N ","false"],["B ","false"],["F ","false"],["H ","false"],["G ","false"],["O ","false"],["C ","false"],["J ","false"],["I ","false"],["E ","false"],["L ","false"],["K ","false"]],"answer":["G","O"],"correct":1,"scaffold":"show-interactive","question":"duration","scenario":"longmire","graph":"linear","condition":4,"session":"kilo","experiment":"reverse","subject":"4S72Y","internal_node_id":"0.0-8.0-2.0","time_elapsed":745770,"trial_index":23,"trial_type":"html","url":"../views/src/external/stimulus.html","rt":23691},{"block":"linear_scaffolded","helps":0,"clicked":[["answer","clicked"],["A ","false"],["M ","false"],["D ","false"],["N ","false"],["B ","false"],["F ","false"],["H ","false"],["G ","false"],["O ","false"],["C ","false"],["J ","false"],["I ","false"],["E ","false"],["L ","false"],["K ","false"]],"answer":["1"],"correct":1,"scaffold":"show-interactive","question":"midpoint","scenario":"longmire","graph":"linear","condition":4,"session":"kilo","experiment":"reverse","subject":"4S72Y","internal_node_id":"0.0-8.0-3.0","time_elapsed":757549,"trial_index":24,"trial_type":"html","url":"../views/src/external/stimulus.html","rt":10525},{"block":"linear_scaffolded","helps":0,"clicked":[["answer","clicked"],["A ","false"],["M ","false"],["D ","false"],["N ","false"],["B ","false"],["F ","false"],["H ","false"],["G ","false"],["O ","false"],["C ","false"],["J ","false"],["I ","false"],["E ","false"],["L ","false"],["K ","false"]],"answer":["A"],"correct":1,"scaffold":"show-interactive","question":"start+overlap","scenario":"longmire","graph":"linear","condition":4,"session":"kilo","experiment":"reverse","subject":"4S72Y","internal_node_id":"0.0-8.0-4.0","time_elapsed":773632,"trial_index":25,"trial_type":"html","url":"../views/src/external/stimulus.html","rt":14823},{"block":"linear_testing","helps":0,"clicked":[["answer","clicked"],["A ","false"],["M ","false"],["D ","false"],["N ","false"],["B ","false"],["F ","false"],["H ","false"],["G ","false"],["O ","false"],["C ","false"],["J ","false"],["I ","false"],["E ","false"],["L ","false"],["K ","false"]],"answer":["C"],"correct":1,"scaffold":"none","question":"starts+finishes","scenario":"longmire","graph":"linear","condition":4,"session":"kilo","experiment":"reverse","subject":"4S72Y","internal_node_id":"0.0-9.0-9.0","time_elapsed":791165,"trial_index":26,"trial_type":"html","url":"../views/src/external/stimulus.html","rt":16276},{"block":"linear_testing","helps":0,"clicked":[["answer","clicked"],["A ","false"],["M ","false"],["D ","false"],["N ","false"],["B ","false"],["F ","false"],["H ","false"],["G ","false"],["O ","false"],["C ","false"],["J ","false"],["I ","false"],["E ","false"],["L ","false"],["K ","false"]],"answer":["A","M","N"],"correct":1,"scaffold":"none","question":"overlap+overlap","scenario":"longmire","graph":"linear","condition":4,"session":"kilo","experiment":"reverse","subject":"4S72Y","internal_node_id":"0.0-9.0-2.0","time_elapsed":825538,"trial_index":27,"trial_type":"html","url":"../views/src/external/stimulus.html","rt":33096},{"block":"linear_testing","helps":0,"clicked":[["answer","clicked"],["A ","false"],["M ","false"],["D ","false"],["N ","false"],["B ","false"],["F ","false"],["H ","false"],["G ","false"],["O ","false"],["C ","false"],["J ","false"],["I ","false"],["E ","false"],["L ","false"],["K ","false"]],"answer":["4"],"correct":0,"scaffold":"none","question":"finishes","scenario":"longmire","graph":"linear","condition":4,"session":"kilo","experiment":"reverse","subject":"4S72Y","internal_node_id":"0.0-9.0-6.0","time_elapsed":853964,"trial_index":28,"trial_type":"html","url":"../views/src/external/stimulus.html","rt":27115},{"block":"linear_testing","helps":0,"clicked":[["answer","clicked"],["A ","false"],["M ","false"],["D ","false"],["N ","false"],["B ","false"],["F ","false"],["H ","false"],["G ","false"],["O ","false"],["C ","false"],["J ","false"],["I ","false"],["E ","false"],["L ","false"],["K ","false"]],"answer":["B","F"],"correct":0,"scaffold":"none","question":"contain+duration","scenario":"longmire","graph":"linear","condition":4,"session":"kilo","experiment":"reverse","subject":"4S72Y","internal_node_id":"0.0-9.0-4.0","time_elapsed":904535,"trial_index":29,"trial_type":"html","url":"../views/src/external/stimulus.html","rt":49320},{"block":"linear_testing","helps":0,"clicked":[["answer","clicked"],["A ","false"],["M ","false"],["D ","false"],["N ","false"],["B ","false"],["F ","false"],["H ","false"],["G ","false"],["O ","false"],["C ","false"],["J ","false"],["I ","false"],["E ","false"],["L ","false"],["K ","false"]],"answer":["B","C","D","F","G"],"correct":1,"scaffold":"none","question":"during","scenario":"longmire","graph":"linear","condition":4,"session":"kilo","experiment":"reverse","subject":"4S72Y","internal_node_id":"0.0-9.0-7.0","time_elapsed":1009748,"trial_index":30,"trial_type":"html","url":"../views/src/external/stimulus.html","rt":103959},{"block":"linear_testing","helps":0,"clicked":[["answer","clicked"],["A ","false"],["M ","false"],["D ","false"],["N ","false"],["B ","false"],["F ","false"],["H ","false"],["G ","false"],["O ","false"],["C ","false"],["J ","false"],["I ","false"],["E ","false"],["L ","false"],["K ","false"]],"answer":["O"],"correct":1,"scaffold":"none","question":"meets","scenario":"longmire","graph":"linear","condition":4,"session":"kilo","experiment":"reverse","subject":"4S72Y","internal_node_id":"0.0-9.0-8.0","time_elapsed":1027228,"trial_index":31,"trial_type":"html","url":"../views/src/external/stimulus.html","rt":16055},{"block":"linear_testing","helps":0,"clicked":[["answer","clicked"],["A ","false"],["M ","false"],["D ","false"],["N ","false"],["B ","false"],["F ","false"],["H ","false"],["G ","false"],["O ","false"],["C ","false"],["J ","false"],["I ","false"],["E ","false"],["L ","false"],["K ","false"]],"answer":["6","8"],"correct":1,"scaffold":"none","question":"starts","scenario":"longmire","graph":"linear","condition":4,"session":"kilo","experiment":"reverse","subject":"4S72Y","internal_node_id":"0.0-9.0-5.0","time_elapsed":1060462,"trial_index":32,"trial_type":"html","url":"../views/src/external/stimulus.html","rt":31979},{"block":"linear_testing","helps":0,"clicked":[["answer","clicked"],["A ","false"],["M ","false"],["D ","false"],["N ","false"],["B ","false"],["F ","false"],["H ","false"],["G ","false"],["O ","false"],["C ","false"],["J ","false"],["I ","false"],["E ","false"],["L ","false"],["K ","false"]],"answer":["K","L"],"correct":1,"scaffold":"none","question":"during+overlap","scenario":"longmire","graph":"linear","condition":4,"session":"kilo","experiment":"reverse","subject":"4S72Y","internal_node_id":"0.0-9.0-3.0","time_elapsed":1088037,"trial_index":33,"trial_type":"html","url":"../views/src/external/stimulus.html","rt":26323},{"block":"linear_testing","helps":0,"clicked":[["answer","clicked"],["A ","false"],["M ","false"],["D ","false"],["N ","false"],["B ","false"],["F ","false"],["H ","false"],["G ","false"],["O ","false"],["C ","false"],["J ","false"],["I ","false"],["E ","false"],["L ","false"],["K ","false"]],"answer":["A","B","C","D","F","I"],"correct":1,"scaffold":"none","question":"before+overlap","scenario":"longmire","graph":"linear","condition":4,"session":"kilo","experiment":"reverse","subject":"4S72Y","internal_node_id":"0.0-9.0-1.0","time_elapsed":1126762,"trial_index":34,"trial_type":"html","url":"../views/src/external/stimulus.html","rt":37474},{"block":"linear_testing","helps":0,"clicked":[["answer","clicked"],["A ","false"],["M ","false"],["D ","false"],["N ","false"],["B ","false"],["F ","false"],["H ","false"],["G ","false"],["O ","false"],["C ","false"],["J ","false"],["I ","false"],["E ","false"],["L ","false"],["K ","false"]],"answer":["A","B","D","F"],"correct":1,"scaffold":"none","question":"start+duration","scenario":"longmire","graph":"linear","condition":4,"session":"kilo","experiment":"reverse","subject":"4S72Y","internal_node_id":"0.0-9.0-0.0","time_elapsed":1165379,"trial_index":35,"trial_type":"html","url":"../views/src/external/stimulus.html","rt":37353},{"condition":4,"session":"kilo","experiment":"reverse","subject":"4S72Y","internal_node_id":"0.0-10.0","time_elapsed":1183351,"trial_index":36,"trial_type":"single-stim","block":"scenario-draw","key_press":13,"stimulus":"img/jones.png","rt":16967},{"condition":4,"session":"kilo","experiment":"reverse","subject":"4S72Y","internal_node_id":"0.0-11.0","time_elapsed":1687248,"trial_index":37,"trial_type":"html","block":"instructions_drawing","url":"../views/src/external/instructions_draw.html","rt":502802},{"block":"drawingTest","clicked":[["answer","clicked"]],"answer":["C1"],"correct":1,"scaffold":"none","question":"duration","scenario":"jones","graph":"none","condition":4,"session":"kilo","experiment":"reverse","subject":"4S72Y","internal_node_id":"0.0-12.0","time_elapsed":1772327,"trial_index":38,"trial_type":"html","url":"../views/src/external/stimulus.html","rt":83741},{"block":"drawingTest","clicked":[["answer","clicked"]],"answer":["Chris","3-4pm"],"correct":1,"scaffold":"none","question":"overlap","scenario":"jones","graph":"none","condition":4,"session":"kilo","experiment":"reverse","subject":"4S72Y","internal_node_id":"0.0-13.0","time_elapsed":1827085,"trial_index":39,"trial_type":"html","url":"../views/src/external/stimulus.html","rt":53406},{"condition":4,"session":"kilo","experiment":"reverse","subject":"4S72Y","internal_node_id":"0.0-14.0","time_elapsed":1843221,"trial_index":40,"trial_type":"survey-text","block":"demo-1","responses":"{\"Q0\":\"18\",\"Q1\":\"United States of America\"}","rt":15131},{"condition":4,"session":"kilo","experiment":"reverse","subject":"4S72Y","internal_node_id":"0.0-15.0","time_elapsed":1857088,"trial_index":41,"trial_type":"survey-multi-choice","block":"demo-2","responses":"{\"Q0\":\"English\",\"Q1\":\"First\",\"Q2\":\"Social Sciences (incl. CogSci)\",\"Q3\":\"Female\",\"Q4\":\"the second one (triangular)\"}","rt":12849},{"condition":4,"session":"kilo","experiment":"reverse","subject":"4S72Y","internal_node_id":"0.0-16.0","time_elapsed":1883856,"trial_index":42,"trial_type":"html","block":"debrief","url":"../views/src/external/debrief.html","rt":25587}],"__v":0}
{"_id":{"$oid":"58c459f08dfa930004a80815"},"data":[{"condition":1,"session":"kilo","experiment":"experiment","subject":"0CDY7","internal_node_id":"0.0-0.0","time_elapsed":791484,"trial_index":0,"trial_type":"single-stim","block":"phone","key_press":13,"stimulus":"img/phone.png","rt":791475},{"condition":1,"session":"kilo","experiment":"experiment","subject":"0CDY7","internal_node_id":"0.0-1.0","time_elapsed":809113,"trial_index":1,"trial_type":"html","block":"consent","url":"../views/src/external/consent.html","rt":16390},{"condition":1,"session":"kilo","experiment":"experiment","subject":"0CDY7","internal_node_id":"0.0-2.0","time_elapsed":818190,"trial_index":2,"trial_type":"survey-text","block":"codes","responses":"{\"Q0\":\"KILO\",\"Q1\":\"1\"}","rt":8065},{"condition":1,"session":"kilo","experiment":"experiment","subject":"0CDY7","internal_node_id":"0.0-3.0","time_elapsed":839278,"trial_index":3,"trial_type":"html","block":"instructions_lab","url":"../views/src/external/instructions_lab.html","rt":19999},{"condition":1,"session":"kilo","experiment":"experiment","subject":"0CDY7","internal_node_id":"0.0-4.0","time_elapsed":860905,"trial_index":4,"trial_type":"single-stim","block":"scenario-one","key_press":13,"stimulus":"img/longmire.png","rt":20625},{"block":"linear_scaffolded","helps":0,"clicked":[["answer","clicked"],["A ","false"],["M ","false"],["D ","false"],["N ","false"],["B ","false"],["F ","false"],["H ","false"],["G ","false"],["O ","false"],["C ","false"],["J ","false"],["I ","false"],["E ","false"],["L ","false"],["K ","false"]],"answer":["C","D","L"],"correct":1,"scaffold":"describe-what","question":"start","scenario":"longmire","graph":"linear","condition":1,"session":"kilo","experiment":"experiment","subject":"0CDY7","internal_node_id":"0.0-5.0-0.0","time_elapsed":894991,"trial_index":5,"trial_type":"html","url":"../views/src/external/stimulus.html","rt":32741},{"block":"linear_scaffolded","helps":0,"clicked":[["answer","clicked"],["A ","false"],["M ","false"],["D ","false"],["N ","false"],["B ","false"],["F ","false"],["H ","false"],["G ","false"],["O ","false"],["C ","false"],["J ","false"],["I ","false"],["E ","false"],["L ","false"],["K ","false"]],"answer":["H","J","K","L","M","N","O"],"correct":1,"scaffold":"describe-what","question":"end","scenario":"longmire","graph":"linear","condition":1,"session":"kilo","experiment":"experiment","subject":"0CDY7","internal_node_id":"0.0-5.0-1.0","time_elapsed":931776,"trial_index":6,"trial_type":"html","url":"../views/src/external/stimulus.html","rt":35535},{"block":"linear_scaffolded","helps":0,"clicked":[["answer","clicked"],["A ","false"],["M ","false"],["D ","false"],["N ","false"],["B ","false"],["F ","false"],["H ","false"],["G ","false"],["O ","false"],["C ","false"],["J ","false"],["I ","false"],["E ","false"],["L ","false"],["K ","false"]],"answer":["G","O"],"correct":1,"scaffold":"describe-what","question":"duration","scenario":"longmire","graph":"linear","condition":1,"session":"kilo","experiment":"experiment","subject":"0CDY7","internal_node_id":"0.0-5.0-2.0","time_elapsed":951496,"trial_index":7,"trial_type":"html","url":"../views/src/external/stimulus.html","rt":18465},{"block":"linear_scaffolded","helps":0,"clicked":[["answer","clicked"],["A ","false"],["M ","false"],["D ","false"],["N ","false"],["B ","false"],["F ","false"],["H ","false"],["G ","false"],["O ","false"],["C ","false"],["J ","false"],["I ","false"],["E ","false"],["L ","false"],["K ","false"]],"answer":["1"],"correct":1,"scaffold":"describe-what","question":"midpoint","scenario":"longmire","graph":"linear","condition":1,"session":"kilo","experiment":"experiment","subject":"0CDY7","internal_node_id":"0.0-5.0-3.0","time_elapsed":982359,"trial_index":8,"trial_type":"html","url":"../views/src/external/stimulus.html","rt":29618},{"block":"linear_scaffolded","helps":0,"clicked":[["answer","clicked"],["A ","false"],["M ","false"],["D ","false"],["N ","false"],["B ","false"],["F ","false"],["H ","false"],["G ","false"],["O ","false"],["C ","false"],["J ","false"],["I ","false"],["E ","false"],["L ","false"],["K ","false"]],"answer":["A"],"correct":1,"scaffold":"describe-what","question":"start+overlap","scenario":"longmire","graph":"linear","condition":1,"session":"kilo","experiment":"experiment","subject":"0CDY7","internal_node_id":"0.0-5.0-4.0","time_elapsed":993669,"trial_index":9,"trial_type":"html","url":"../views/src/external/stimulus.html","rt":10057},{"block":"linear_testing","helps":0,"clicked":[["answer","clicked"],["A ","false"],["M ","false"],["D ","false"],["N ","false"],["B ","false"],["F ","false"],["H ","false"],["G ","false"],["O ","false"],["C ","false"],["J ","false"],["I ","false"],["E ","false"],["L ","false"],["K ","false"]],"answer":["C"],"correct":1,"scaffold":"none","question":"starts+finishes","scenario":"longmire","graph":"linear","condition":1,"session":"kilo","experiment":"experiment","subject":"0CDY7","internal_node_id":"0.0-6.0-9.0","time_elapsed":1011498,"trial_index":10,"trial_type":"html","url":"../views/src/external/stimulus.html","rt":16574},{"block":"linear_testing","helps":0,"clicked":[["answer","clicked"],["A ","false"],["M ","false"],["D ","false"],["N ","false"],["B ","false"],["F ","false"],["H ","false"],["G ","false"],["O ","false"],["C ","false"],["J ","false"],["I ","false"],["E ","false"],["L ","false"],["K ","false"]],"answer":["G","O"],"correct":1,"scaffold":"none","question":"contain+duration","scenario":"longmire","graph":"linear","condition":1,"session":"kilo","experiment":"experiment","subject":"0CDY7","internal_node_id":"0.0-6.0-4.0","time_elapsed":1053892,"trial_index":11,"trial_type":"html","url":"../views/src/external/stimulus.html","rt":41146},{"block":"linear_testing","helps":0,"clicked":[["answer","clicked"],["A ","false"],["M ","false"],["D ","false"],["N ","false"],["B ","false"],["F ","false"],["H ","false"],["G ","false"],["O ","false"],["C ","false"],["J ","false"],["I ","false"],["E ","false"],["L ","false"],["K ","false"]],"answer":["C","F"],"correct":0,"scaffold":"none","question":"during","scenario":"longmire","graph":"linear","condition":1,"session":"kilo","experiment":"experiment","subject":"0CDY7","internal_node_id":"0.0-6.0-7.0","time_elapsed":1103669,"trial_index":12,"trial_type":"html","url":"../views/src/external/stimulus.html","rt":48528},{"block":"linear_testing","helps":0,"clicked":[["answer","clicked"],["A ","false"],["M ","false"],["D ","false"],["N ","false"],["B ","false"],["F ","false"],["H ","false"],["G ","false"],["O ","false"],["C ","false"],["J ","false"],["I ","false"],["E ","false"],["L ","false"],["K ","false"]],"answer":["A","M","N"],"correct":1,"scaffold":"none","question":"overlap+overlap","scenario":"longmire","graph":"linear","condition":1,"session":"kilo","experiment":"experiment","subject":"0CDY7","internal_node_id":"0.0-6.0-2.0","time_elapsed":1140295,"trial_index":13,"trial_type":"html","url":"../views/src/external/stimulus.html","rt":35371},{"block":"linear_testing","helps":0,"clicked":[["answer","clicked"],["A ","false"],["M ","false"],["D ","false"],["N ","false"],["B ","false"],["F ","false"],["H ","false"],["G ","false"],["O ","false"],["C ","false"],["J ","false"],["I ","false"],["E ","false"],["L ","false"],["K ","false"]],"answer":["A","B","F"],"correct":0,"scaffold":"none","question":"start+duration","scenario":"longmire","graph":"linear","condition":1,"session":"kilo","experiment":"experiment","subject":"0CDY7","internal_node_id":"0.0-6.0-0.0","time_elapsed":1178440,"trial_index":14,"trial_type":"html","url":"../views/src/external/stimulus.html","rt":36897},{"block":"linear_testing","helps":0,"clicked":[["answer","clicked"],["A ","false"],["M ","false"],["D ","false"],["N ","false"],["B ","false"],["F ","false"],["H ","false"],["G ","false"],["O ","false"],["C ","false"],["J ","false"],["I ","false"],["E ","false"],["L ","false"],["K ","false"]],"answer":["A","B","C","D","F","I"],"correct":1,"scaffold":"none","question":"before+overlap","scenario":"longmire","graph":"linear","condition":1,"session":"kilo","experiment":"experiment","subject":"0CDY7","internal_node_id":"0.0-6.0-1.0","time_elapsed":1230652,"trial_index":15,"trial_type":"html","url":"../views/src/external/stimulus.html","rt":50949},{"block":"linear_testing","helps":0,"clicked":[["answer","clicked"],["A ","false"],["M ","false"],["D ","false"],["N ","false"],["B ","false"],["F ","false"],["H ","false"],["G ","false"],["O ","false"],["C ","false"],["J ","false"],["I ","false"],["E ","false"],["L ","false"],["K ","false"]],"answer":["O"],"correct":1,"scaffold":"none","question":"meets","scenario":"longmire","graph":"linear","condition":1,"session":"kilo","experiment":"experiment","subject":"0CDY7","internal_node_id":"0.0-6.0-8.0","time_elapsed":1250827,"trial_index":16,"trial_type":"html","url":"../views/src/external/stimulus.html","rt":18928},{"block":"linear_testing","helps":0,"clicked":[["answer","clicked"],["A ","false"],["M ","false"],["D ","false"],["N ","false"],["B ","false"],["F ","false"],["H ","false"],["G ","false"],["O ","false"],["C ","false"],["J ","false"],["I ","false"],["E ","false"],["L ","false"],["K ","false"]],"answer":["4"],"correct":0,"scaffold":"none","question":"finishes","scenario":"longmire","graph":"linear","condition":1,"session":"kilo","experiment":"experiment","subject":"0CDY7","internal_node_id":"0.0-6.0-6.0","time_elapsed":1289411,"trial_index":17,"trial_type":"html","url":"../views/src/external/stimulus.html","rt":37324},{"block":"linear_testing","helps":0,"clicked":[["answer","clicked"],["A ","false"],["M ","false"],["D ","false"],["N ","false"],["B ","false"],["F ","false"],["H ","false"],["G ","false"],["O ","false"],["C ","false"],["J ","false"],["I ","false"],["E ","false"],["L ","false"],["K ","false"]],"answer":["K","L"],"correct":1,"scaffold":"none","question":"during+overlap","scenario":"longmire","graph":"linear","condition":1,"session":"kilo","experiment":"experiment","subject":"0CDY7","internal_node_id":"0.0-6.0-3.0","time_elapsed":1323546,"trial_index":18,"trial_type":"html","url":"../views/src/external/stimulus.html","rt":32877},{"block":"linear_testing","helps":0,"clicked":[["answer","clicked"],["A ","false"],["M ","false"],["D ","false"],["N ","false"],["B ","false"],["F ","false"],["H ","false"],["G ","false"],["O ","false"],["C ","false"],["J ","false"],["I ","false"],["E ","false"],["L ","false"],["K ","false"]],"answer":["4"],"correct":0,"scaffold":"none","question":"starts","scenario":"longmire","graph":"linear","condition":1,"session":"kilo","experiment":"experiment","subject":"0CDY7","internal_node_id":"0.0-6.0-5.0","time_elapsed":1342323,"trial_index":19,"trial_type":"html","url":"../views/src/external/stimulus.html","rt":17527},{"condition":1,"session":"kilo","experiment":"experiment","subject":"0CDY7","internal_node_id":"0.0-7.0","time_elapsed":1357878,"trial_index":20,"trial_type":"single-stim","block":"scenario-two","key_press":13,"stimulus":"img/axis.png","rt":14550},{"block":"triangular_scaffolded","helps":0,"clicked":[["answer","clicked"],["M ","false"],["B ","false"],["J ","false"],["N ","false"],["D ","false"],["O ","false"],["K ","false"],["C ","false"],["F ","false"],["I ","false"],["H ","false"],["G ","false"],["L ","false"],["E ","false"],["A ","false"]],"answer":["G"],"correct":0,"scaffold":"describe-what","question":"start","scenario":"axis","graph":"triangular","condition":1,"session":"kilo","experiment":"experiment","subject":"0CDY7","internal_node_id":"0.0-8.0-0.0","time_elapsed":1385155,"trial_index":21,"trial_type":"html","url":"../views/src/external/stimulus.html","rt":26012},{"block":"triangular_scaffolded","helps":0,"clicked":[["answer","clicked"],["M ","false"],["B ","false"],["J ","false"],["N ","false"],["D ","false"],["O ","false"],["K ","false"],["C ","false"],["F ","false"],["I ","false"],["H ","false"],["G ","false"],["L ","false"],["E ","false"],["A ","false"]],"answer":["4"],"correct":1,"scaffold":"describe-what","question":"end","scenario":"axis","graph":"triangular","condition":1,"session":"kilo","experiment":"experiment","subject":"0CDY7","internal_node_id":"0.0-8.0-1.0","time_elapsed":1447615,"trial_index":22,"trial_type":"html","url":"../views/src/external/stimulus.html","rt":61210},{"block":"triangular_scaffolded","helps":0,"clicked":[["answer","clicked"],["M ","false"],["B ","false"],["J ","false"],["N ","false"],["D ","false"],["O ","false"],["K ","false"],["C ","false"],["F ","false"],["I ","false"],["H ","false"],["G ","false"],["L ","false"],["E ","false"],["A ","false"]],"answer":["A","C","E","F","G","H","I","K","L"],"correct":1,"scaffold":"describe-what","question":"duration","scenario":"axis","graph":"triangular","condition":1,"session":"kilo","experiment":"experiment","subject":"0CDY7","internal_node_id":"0.0-8.0-2.0","time_elapsed":1493211,"trial_index":23,"trial_type":"html","url":"../views/src/external/stimulus.html","rt":44256},{"block":"triangular_scaffolded","helps":0,"clicked":[["answer","clicked"],["M ","false"],["B ","false"],["J ","false"],["N ","false"],["D ","false"],["O ","false"],["K ","false"],["C ","false"],["F ","false"],["I ","false"],["H ","false"],["G ","false"],["L ","false"],["E ","false"],["A ","false"]],"answer":["8"],"correct":1,"scaffold":"describe-what","question":"midpoint","scenario":"axis","graph":"triangular","condition":1,"session":"kilo","experiment":"experiment","subject":"0CDY7","internal_node_id":"0.0-8.0-3.0","time_elapsed":1556085,"trial_index":24,"trial_type":"html","url":"../views/src/external/stimulus.html","rt":61622},{"block":"triangular_scaffolded","helps":0,"clicked":[["answer","clicked"],["M ","false"],["B ","false"],["J ","false"],["N ","false"],["D ","false"],["O ","false"],["K ","false"],["C ","false"],["F ","false"],["I ","false"],["H ","false"],["G ","false"],["L ","false"],["E ","false"],["A ","false"]],"answer":["1"],"correct":0,"scaffold":"describe-what","question":"start+overlap","scenario":"axis","graph":"triangular","condition":1,"session":"kilo","experiment":"experiment","subject":"0CDY7","internal_node_id":"0.0-8.0-4.0","time_elapsed":1591613,"trial_index":25,"trial_type":"html","url":"../views/src/external/stimulus.html","rt":34091},{"block":"triangular_testing","helps":0,"answer":["6"],"clicked":[["answer","clicked"],["M ","false"],["B ","false"],["J ","false"],["N ","false"],["D ","false"],["O ","false"],["K ","false"],["C ","false"],["F ","false"],["I ","false"],["H ","false"],["G ","false"],["L ","false"],["E ","false"],["A ","false"]],"correct":1,"scaffold":"none","question":"starts","scenario":"axis","graph":"triangular","condition":1,"session":"kilo","experiment":"experiment","subject":"0CDY7","internal_node_id":"0.0-9.0-5.0","time_elapsed":1615993,"trial_index":26,"trial_type":"html","url":"../views/src/external/stimulus.html","rt":23120},{"block":"triangular_testing","helps":0,"answer":["F","M","O"],"clicked":[["answer","clicked"],["M ","false"],["B ","false"],["J ","false"],["N ","false"],["D ","false"],["O ","false"],["K ","false"],["C ","false"],["F ","false"],["I ","false"],["H ","false"],["G ","false"],["L ","false"],["E ","false"],["A ","false"]],"correct":1,"scaffold":"none","question":"during","scenario":"axis","graph":"triangular","condition":1,"session":"kilo","experiment":"experiment","subject":"0CDY7","internal_node_id":"0.0-9.0-7.0","time_elapsed":1649562,"trial_index":27,"trial_type":"html","url":"../views/src/external/stimulus.html","rt":32321},{"block":"triangular_testing","helps":0,"answer":["A"],"clicked":[["answer","clicked"],["M ","false"],["B ","false"],["J ","false"],["N ","false"],["D ","false"],["O ","false"],["K ","false"],["C ","false"],["F ","false"],["I ","false"],["H ","false"],["G ","false"],["L ","false"],["E ","false"],["A ","false"]],"correct":1,"scaffold":"none","question":"during+overlap","scenario":"axis","graph":"triangular","condition":1,"session":"kilo","experiment":"experiment","subject":"0CDY7","internal_node_id":"0.0-9.0-3.0","time_elapsed":1691947,"trial_index":28,"trial_type":"html","url":"../views/src/external/stimulus.html","rt":41127},{"block":"triangular_testing","helps":0,"answer":["G","O"],"clicked":[["answer","clicked"],["M ","false"],["B ","false"],["J ","false"],["N ","false"],["D ","false"],["O ","false"],["K ","false"],["C ","false"],["F ","false"],["I ","false"],["H ","false"],["G ","false"],["L ","false"],["E ","false"],["A ","false"]],"correct":1,"scaffold":"none","question":"finishes","scenario":"axis","graph":"triangular","condition":1,"session":"kilo","experiment":"experiment","subject":"0CDY7","internal_node_id":"0.0-9.0-6.0","time_elapsed":1703429,"trial_index":29,"trial_type":"html","url":"../views/src/external/stimulus.html","rt":10234},{"block":"triangular_testing","helps":0,"answer":["O"],"clicked":[["answer","clicked"],["M ","false"],["B ","false"],["J ","false"],["N ","false"],["D ","false"],["O ","false"],["K ","false"],["C ","false"],["F ","false"],["I ","false"],["H ","false"],["G ","false"],["L ","false"],["E ","false"],["A ","false"]],"correct":0,"scaffold":"none","question":"contain+duration","scenario":"axis","graph":"triangular","condition":1,"session":"kilo","experiment":"experiment","subject":"0CDY7","internal_node_id":"0.0-9.0-4.0","time_elapsed":1731947,"trial_index":30,"trial_type":"html","url":"../views/src/external/stimulus.html","rt":27264},{"block":"triangular_testing","helps":0,"answer":["F","G","M","O"],"clicked":[["answer","clicked"],["M ","false"],["B ","false"],["J ","false"],["N ","false"],["D ","false"],["O ","false"],["K ","false"],["C ","false"],["F ","false"],["I ","false"],["H ","false"],["G ","false"],["L ","false"],["E ","false"],["A ","false"]],"correct":0,"scaffold":"none","question":"meets","scenario":"axis","graph":"triangular","condition":1,"session":"kilo","experiment":"experiment","subject":"0CDY7","internal_node_id":"0.0-9.0-8.0","time_elapsed":1787750,"trial_index":31,"trial_type":"html","url":"../views/src/external/stimulus.html","rt":54559},{"block":"triangular_testing","helps":0,"answer":["F","G","M","O"],"clicked":[["answer","clicked"],["M ","false"],["B ","false"],["J ","false"],["N ","false"],["D ","false"],["O ","false"],["K ","false"],["C ","false"],["F ","false"],["I ","false"],["H ","false"],["G ","false"],["L ","false"],["E ","false"],["A ","false"]],"correct":1,"scaffold":"none","question":"before+overlap","scenario":"axis","graph":"triangular","condition":1,"session":"kilo","experiment":"experiment","subject":"0CDY7","internal_node_id":"0.0-9.0-1.0","time_elapsed":1822519,"trial_index":32,"trial_type":"html","url":"../views/src/external/stimulus.html","rt":33520},{"block":"triangular_testing","helps":0,"answer":["8"],"clicked":[["answer","clicked"],["M ","false"],["B ","false"],["J ","false"],["N ","false"],["D ","false"],["O ","false"],["K ","false"],["C ","false"],["F ","false"],["I ","false"],["H ","false"],["G ","false"],["L ","false"],["E ","false"],["A ","false"]],"correct":0,"scaffold":"none","question":"start+duration","scenario":"axis","graph":"triangular","condition":1,"session":"kilo","experiment":"experiment","subject":"0CDY7","internal_node_id":"0.0-9.0-0.0","time_elapsed":1853924,"trial_index":33,"trial_type":"html","url":"../views/src/external/stimulus.html","rt":30153},{"block":"triangular_testing","helps":0,"answer":["G"],"clicked":[["answer","clicked"],["M ","false"],["B ","false"],["J ","false"],["N ","false"],["D ","false"],["O ","false"],["K ","false"],["C ","false"],["F ","false"],["I ","false"],["H ","false"],["G ","false"],["L ","false"],["E ","false"],["A ","false"]],"correct":1,"scaffold":"none","question":"starts+finishes","scenario":"axis","graph":"triangular","condition":1,"session":"kilo","experiment":"experiment","subject":"0CDY7","internal_node_id":"0.0-9.0-9.0","time_elapsed":1867097,"trial_index":34,"trial_type":"html","url":"../views/src/external/stimulus.html","rt":11918},{"block":"triangular_testing","helps":0,"answer":["B","J"],"clicked":[["answer","clicked"],["M ","false"],["B ","false"],["J ","false"],["N ","false"],["D ","false"],["O ","false"],["K ","false"],["C ","false"],["F ","false"],["I ","false"],["H ","false"],["G ","false"],["L ","false"],["E ","false"],["A ","false"]],"correct":0,"scaffold":"none","question":"overlap+overlap","scenario":"axis","graph":"triangular","condition":1,"session":"kilo","experiment":"experiment","subject":"0CDY7","internal_node_id":"0.0-9.0-2.0","time_elapsed":1882515,"trial_index":35,"trial_type":"html","url":"../views/src/external/stimulus.html","rt":14165},{"condition":1,"session":"kilo","experiment":"experiment","subject":"0CDY7","internal_node_id":"0.0-10.0","time_elapsed":1891795,"trial_index":36,"trial_type":"single-stim","block":"scenario-draw","key_press":13,"stimulus":"img/jones.png","rt":8273},{"condition":1,"session":"kilo","experiment":"experiment","subject":"0CDY7","internal_node_id":"0.0-11.0","time_elapsed":2439370,"trial_index":37,"trial_type":"html","block":"instructions_drawing","url":"../views/src/external/instructions_draw.html","rt":546478},{"block":"drawingTest","clicked":[["answer","clicked"]],"answer":["I4"],"correct":0,"scaffold":"none","question":"duration","scenario":"jones","graph":"none","condition":1,"session":"kilo","experiment":"experiment","subject":"0CDY7","internal_node_id":"0.0-12.0","time_elapsed":2490668,"trial_index":38,"trial_type":"html","url":"../views/src/external/stimulus.html","rt":49812},{"block":"drawingTest","clicked":[["answer","clicked"]],"answer":["Chris","3-4pm"],"correct":1,"scaffold":"none","question":"overlap","scenario":"jones","graph":"none","condition":1,"session":"kilo","experiment":"experiment","subject":"0CDY7","internal_node_id":"0.0-13.0","time_elapsed":2588962,"trial_index":39,"trial_type":"html","url":"../views/src/external/stimulus.html","rt":97050},{"condition":1,"session":"kilo","experiment":"experiment","subject":"0CDY7","internal_node_id":"0.0-14.0","time_elapsed":2599932,"trial_index":40,"trial_type":"survey-text","block":"demo-1","responses":"{\"Q0\":\"21\",\"Q1\":\"China\"}","rt":9961},{"condition":1,"session":"kilo","experiment":"experiment","subject":"0CDY7","internal_node_id":"0.0-15.0","time_elapsed":2620702,"trial_index":41,"trial_type":"survey-multi-choice","block":"demo-2","responses":"{\"Q0\":\"Mandarin or Cantonese\",\"Q1\":\"Fourth\",\"Q2\":\"Biomedical \u0026 Health Sciences\",\"Q3\":\"Female\",\"Q4\":\"the first one (linear\"}","rt":19745},{"condition":1,"session":"kilo","experiment":"experiment","subject":"0CDY7","internal_node_id":"0.0-16.0","time_elapsed":2626072,"trial_index":42,"trial_type":"html","block":"debrief","url":"../views/src/external/debrief.html","rt":4165}],"__v":0}
