{"_id":{"$oid":"58c46eb68dfa930004a8082e"},"data":[{"condition":4,"session":"lima","experiment":"reverse","subject":"R7ORQ","internal_node_id":"0.0-0.0","time_elapsed":166105,"trial_index":0,"trial_type":"single-stim","block":"phone","key_press":13,"stimulus":"img/phone.png","rt":166097},{"condition":4,"session":"lima","experiment":"reverse","subject":"R7ORQ","internal_node_id":"0.0-1.0","time_elapsed":170735,"trial_index":1,"trial_type":"html","block":"consent","url":"../views/src/external/consent.html","rt":3449},{"condition":4,"session":"lima","experiment":"reverse","subject":"R7ORQ","internal_node_id":"0.0-2.0","time_elapsed":180341,"trial_index":2,"trial_type":"survey-text","block":"codes","responses":"{\"Q0\":\"LIMA\",\"Q1\":\"4\\n4\"}","rt":8596},{"condition":4,"session":"lima","experiment":"reverse","subject":"R7ORQ","internal_node_id":"0.0-3.0","time_elapsed":191967,"trial_index":3,"trial_type":"html","block":"instructions_lab","url":"../views/src/external/instructions_lab.html","rt":10531},{"condition":4,"session":"lima","experiment":"reverse","subject":"R7ORQ","internal_node_id":"0.0-4.0","time_elapsed":203467,"trial_index":4,"trial_type":"single-stim","block":"scenario-two","key_press":13,"stimulus":"img/axis.png","rt":10497},{"block":"triangular_scaffolded","helps":0,"clicked":[["answer","clicked"],["M ","false"],["B ","false"],["J ","false"],["N ","false"],["D ","false"],["O ","false"],["K ","false"],["C ","false"],["F ","false"],["I ","false"],["H ","false"],["G ","false"],["L ","false"],["E ","false"],["A ","false"]],"answer":["G"],"correct":0,"scaffold":"show-interactive","question":"start","scenario":"axis","graph":"triangular","condition":4,"session":"lima","experiment":"reverse","subject":"R7ORQ","internal_node_id":"0.0-5.0-0.0","time_elapsed":212496,"trial_index":5,"trial_type":"html","url":"../views/src/external/stimulus.html","rt":7605},{"block":"triangular_scaffolded","helps":0,"clicked":[["answer","clicked"],["M ","false"],["B ","false"],["J ","false"],["N ","false"],["D ","false"],["O ","false"],["K ","false"],["C ","false"],["F ","false"],["I ","false"],["H ","false"],["G ","false"],["L ","false"],["E ","false"],["A ","false"]],"answer":["4"],"correct":1,"scaffold":"show-interactive","question":"end","scenario":"axis","graph":"triangular","condition":4,"session":"lima","experiment":"reverse","subject":"R7ORQ","internal_node_id":"0.0-5.0-1.0","time_elapsed":222200,"trial_index":6,"trial_type":"html","url":"../views/src/external/stimulus.html","rt":8432},{"block":"triangular_scaffolded","helps":0,"clicked":[["answer","clicked"],["M ","false"],["B ","false"],["J ","false"],["N ","false"],["D ","false"],["O ","false"],["K ","false"],["C ","false"],["F ","false"],["I ","false"],["H ","false"],["G ","false"],["L ","false"],["E ","false"],["A ","false"]],"answer":["A","C","E","F","G","H","I","K","L"],"correct":1,"scaffold":"show-interactive","question":"duration","scenario":"axis","graph":"triangular","condition":4,"session":"lima","experiment":"reverse","subject":"R7ORQ","internal_node_id":"0.0-5.0-2.0","time_elapsed":271852,"trial_index":7,"trial_type":"html","url":"../views/src/external/stimulus.html","rt":48388},{"block":"triangular_scaffolded","helps":0,"clicked":[["answer","clicked"],["M ","false"],["B ","false"],["J ","false"],["N ","false"],["D ","false"],["O ","false"],["K ","false"],["C ","false"],["F ","false"],["I ","false"],["H ","false"],["G ","false"],["L ","false"],["E ","false"],["A ","false"]],"answer":["8"],"correct":1,"scaffold":"show-interactive","question":"midpoint","scenario":"axis","graph":"triangular","condition":4,"session":"lima","experiment":"reverse","subject":"R7ORQ","internal_node_id":"0.0-5.0-3.0","time_elapsed":307066,"trial_index":8,"trial_type":"html","url":"../views/src/external/stimulus.html","rt":33955},{"block":"triangular_scaffolded","helps":0,"clicked":[["answer","clicked"],["M ","false"],["B ","false"],["J ","false"],["N ","false"],["D ","false"],["O ","false"],["K ","false"],["C ","false"],["F ","false"],["I ","false"],["H ","false"],["G ","false"],["L ","false"],["E ","false"],["A ","false"]],"answer":["1"],"correct":0,"scaffold":"show-interactive","question":"start+overlap","scenario":"axis","graph":"triangular","condition":4,"session":"lima","experiment":"reverse","subject":"R7ORQ","internal_node_id":"0.0-5.0-4.0","time_elapsed":355649,"trial_index":9,"trial_type":"html","url":"../views/src/external/stimulus.html","rt":47331},{"block":"triangular_testing","helps":0,"answer":["J"],"clicked":[["answer","clicked"],["M ","false"],["B ","false"],["J ","false"],["N ","true"],["D ","false"],["O ","false"],["K ","true"],["C ","false"],["F ","false"],["I ","false"],["H ","false"],["G ","false"],["L ","false"],["E ","false"],["A ","false"]],"correct":0,"scaffold":"none","question":"before+overlap","scenario":"axis","graph":"triangular","condition":4,"session":"lima","experiment":"reverse","subject":"R7ORQ","internal_node_id":"0.0-6.0-1.0","time_elapsed":389749,"trial_index":10,"trial_type":"html","url":"../views/src/external/stimulus.html","rt":32829},{"block":"triangular_testing","helps":0,"answer":["M"],"clicked":[["answer","clicked"],["M ","false"],["B ","false"],["J ","false"],["N ","true"],["D ","false"],["O ","false"],["K ","false"],["C ","false"],["F ","false"],["I ","false"],["H ","false"],["G ","false"],["L ","false"],["E ","false"],["A ","false"]],"correct":0,"scaffold":"none","question":"during+overlap","scenario":"axis","graph":"triangular","condition":4,"session":"lima","experiment":"reverse","subject":"R7ORQ","internal_node_id":"0.0-6.0-3.0","time_elapsed":430999,"trial_index":11,"trial_type":"html","url":"../views/src/external/stimulus.html","rt":39996},{"block":"triangular_testing","helps":0,"answer":["J"],"clicked":[["answer","clicked"],["M ","false"],["B ","false"],["J ","false"],["N ","false"],["D ","false"],["O ","false"],["K ","true"],["C ","false"],["F ","false"],["I ","true"],["H ","false"],["G ","false"],["L ","false"],["E ","false"],["A ","false"]],"correct":0,"scaffold":"none","question":"overlap+overlap","scenario":"axis","graph":"triangular","condition":4,"session":"lima","experiment":"reverse","subject":"R7ORQ","internal_node_id":"0.0-6.0-2.0","time_elapsed":455384,"trial_index":12,"trial_type":"html","url":"../views/src/external/stimulus.html","rt":23129},{"block":"triangular_testing","helps":0,"answer":["F"],"clicked":[["answer","clicked"],["M ","false"],["B ","false"],["J ","false"],["N ","true"],["D ","false"],["O ","false"],["K ","true"],["C ","false"],["F ","true"],["I ","false"],["H ","true"],["G ","false"],["L ","false"],["E ","false"],["A ","false"]],"correct":0,"scaffold":"none","question":"meets","scenario":"axis","graph":"triangular","condition":4,"session":"lima","experiment":"reverse","subject":"R7ORQ","internal_node_id":"0.0-6.0-8.0","time_elapsed":505598,"trial_index":13,"trial_type":"html","url":"../views/src/external/stimulus.html","rt":48963},{"block":"triangular_testing","helps":0,"answer":["H","N","O"],"clicked":[["answer","clicked"],["M ","false"],["B ","false"],["J ","false"],["N ","true"],["D ","false"],["O ","true"],["K ","false"],["C ","false"],["F ","false"],["I ","false"],["H ","true"],["G ","false"],["L ","true"],["E ","false"],["A ","false"]],"correct":0,"scaffold":"none","question":"contain+duration","scenario":"axis","graph":"triangular","condition":4,"session":"lima","experiment":"reverse","subject":"R7ORQ","internal_node_id":"0.0-6.0-4.0","time_elapsed":533000,"trial_index":14,"trial_type":"html","url":"../views/src/external/stimulus.html","rt":26151},{"block":"triangular_testing","helps":0,"answer":["G"],"clicked":[["answer","clicked"],["M ","false"],["B ","false"],["J ","false"],["N ","false"],["D ","false"],["O ","true"],["K ","false"],["C ","false"],["F ","true"],["I ","false"],["H ","false"],["G ","false"],["L ","false"],["E ","false"],["A ","false"]],"correct":1,"scaffold":"none","question":"starts+finishes","scenario":"axis","graph":"triangular","condition":4,"session":"lima","experiment":"reverse","subject":"R7ORQ","internal_node_id":"0.0-6.0-9.0","time_elapsed":543176,"trial_index":15,"trial_type":"html","url":"../views/src/external/stimulus.html","rt":8924},{"block":"triangular_testing","helps":0,"answer":["A"],"clicked":[["answer","clicked"],["M ","false"],["B ","false"],["J ","false"],["N ","false"],["D ","false"],["O ","false"],["K ","false"],["C ","false"],["F ","false"],["I ","false"],["H ","false"],["G ","true"],["L ","false"],["E ","false"],["A ","false"]],"correct":0,"scaffold":"none","question":"during","scenario":"axis","graph":"triangular","condition":4,"session":"lima","experiment":"reverse","subject":"R7ORQ","internal_node_id":"0.0-6.0-7.0","time_elapsed":563966,"trial_index":16,"trial_type":"html","url":"../views/src/external/stimulus.html","rt":19536},{"block":"triangular_testing","helps":0,"answer":["A","G","O"],"clicked":[["answer","clicked"],["M ","false"],["B ","false"],["J ","false"],["N ","false"],["D ","false"],["O ","true"],["K ","false"],["C ","false"],["F ","false"],["I ","false"],["H ","false"],["G ","true"],["L ","false"],["E ","false"],["A ","true"]],"correct":0,"scaffold":"none","question":"finishes","scenario":"axis","graph":"triangular","condition":4,"session":"lima","experiment":"reverse","subject":"R7ORQ","internal_node_id":"0.0-6.0-6.0","time_elapsed":576801,"trial_index":17,"trial_type":"html","url":"../views/src/external/stimulus.html","rt":11574},{"block":"triangular_testing","helps":0,"answer":["9"],"clicked":[["answer","clicked"],["M ","false"],["B ","true"],["J ","true"],["N ","false"],["D ","false"],["O ","false"],["K ","false"],["C ","false"],["F ","false"],["I ","false"],["H ","false"],["G ","false"],["L ","false"],["E ","false"],["A ","false"]],"correct":1,"scaffold":"none","question":"start+duration","scenario":"axis","graph":"triangular","condition":4,"session":"lima","experiment":"reverse","subject":"R7ORQ","internal_node_id":"0.0-6.0-0.0","time_elapsed":595870,"trial_index":18,"trial_type":"html","url":"../views/src/external/stimulus.html","rt":17818},{"block":"triangular_testing","helps":0,"answer":["6"],"clicked":[["answer","clicked"],["M ","false"],["B ","true"],["J ","false"],["N ","false"],["D ","false"],["O ","false"],["K ","true"],["C ","false"],["F ","false"],["I ","true"],["H ","false"],["G ","false"],["L ","false"],["E ","true"],["A ","true"]],"correct":1,"scaffold":"none","question":"starts","scenario":"axis","graph":"triangular","condition":4,"session":"lima","experiment":"reverse","subject":"R7ORQ","internal_node_id":"0.0-6.0-5.0","time_elapsed":619606,"trial_index":19,"trial_type":"html","url":"../views/src/external/stimulus.html","rt":22479},{"condition":4,"session":"lima","experiment":"reverse","subject":"R7ORQ","internal_node_id":"0.0-7.0","time_elapsed":626111,"trial_index":20,"trial_type":"single-stim","block":"scenario-one","key_press":13,"stimulus":"img/longmire.png","rt":5500},{"block":"linear_scaffolded","helps":0,"clicked":[["answer","clicked"],["A ","false"],["M ","false"],["D ","false"],["N ","false"],["B ","false"],["F ","false"],["H ","false"],["G ","false"],["O ","false"],["C ","false"],["J ","false"],["I ","false"],["E ","false"],["L ","false"],["K ","false"]],"answer":["C","D","L"],"correct":1,"scaffold":"show-interactive","question":"start","scenario":"longmire","graph":"linear","condition":4,"session":"lima","experiment":"reverse","subject":"R7ORQ","internal_node_id":"0.0-8.0-0.0","time_elapsed":639676,"trial_index":21,"trial_type":"html","url":"../views/src/external/stimulus.html","rt":12301},{"block":"linear_scaffolded","helps":0,"clicked":[["answer","clicked"],["A ","false"],["M ","false"],["D ","false"],["N ","false"],["B ","false"],["F ","false"],["H ","true"],["G ","false"],["O ","true"],["C ","false"],["J ","true"],["I ","false"],["E ","false"],["L ","false"],["K ","false"]],"answer":["H","J","O"],"correct":0,"scaffold":"show-interactive","question":"end","scenario":"longmire","graph":"linear","condition":4,"session":"lima","experiment":"reverse","subject":"R7ORQ","internal_node_id":"0.0-8.0-1.0","time_elapsed":666174,"trial_index":22,"trial_type":"html","url":"../views/src/external/stimulus.html","rt":25246},{"block":"linear_scaffolded","helps":0,"clicked":[["answer","clicked"],["A ","false"],["M ","false"],["D ","false"],["N ","false"],["B ","false"],["F ","false"],["H ","false"],["G ","true"],["O ","true"],["C ","false"],["J ","false"],["I ","false"],["E ","false"],["L ","false"],["K ","false"]],"answer":["G","O"],"correct":1,"scaffold":"show-interactive","question":"duration","scenario":"longmire","graph":"linear","condition":4,"session":"lima","experiment":"reverse","subject":"R7ORQ","internal_node_id":"0.0-8.0-2.0","time_elapsed":688317,"trial_index":23,"trial_type":"html","url":"../views/src/external/stimulus.html","rt":20886},{"block":"linear_scaffolded","helps":0,"clicked":[["answer","clicked"],["A ","false"],["M ","false"],["D ","false"],["N ","false"],["B ","false"],["F ","false"],["H ","false"],["G ","false"],["O ","false"],["C ","false"],["J ","true"],["I ","false"],["E ","false"],["L ","false"],["K ","false"]],"answer":["1"],"correct":1,"scaffold":"show-interactive","question":"midpoint","scenario":"longmire","graph":"linear","condition":4,"session":"lima","experiment":"reverse","subject":"R7ORQ","internal_node_id":"0.0-8.0-3.0","time_elapsed":717577,"trial_index":24,"trial_type":"html","url":"../views/src/external/stimulus.html","rt":27999},{"block":"linear_scaffolded","helps":0,"clicked":[["answer","clicked"],["A ","false"],["M ","false"],["D ","false"],["N ","false"],["B ","false"],["F ","true"],["H ","false"],["G ","false"],["O ","false"],["C ","false"],["J ","false"],["I ","false"],["E ","false"],["L ","false"],["K ","false"]],"answer":["A"],"correct":1,"scaffold":"show-interactive","question":"start+overlap","scenario":"longmire","graph":"linear","condition":4,"session":"lima","experiment":"reverse","subject":"R7ORQ","internal_node_id":"0.0-8.0-4.0","time_elapsed":728792,"trial_index":25,"trial_type":"html","url":"../views/src/external/stimulus.html","rt":9957},{"block":"linear_testing","helps":0,"clicked":[["answer","clicked"],["A ","false"],["M ","false"],["D ","false"],["N ","false"],["B ","false"],["F ","false"],["H ","false"],["G ","false"],["O ","false"],["C ","false"],["J ","true"],["I ","false"],["E ","false"],["L ","false"],["K ","false"]],"answer":["G","H","O"],"correct":0,"scaffold":"none","question":"contain+duration","scenario":"longmire","graph":"linear","condition":4,"session":"lima","experiment":"reverse","subject":"R7ORQ","internal_node_id":"0.0-9.0-4.0","time_elapsed":779198,"trial_index":26,"trial_type":"html","url":"../views/src/external/stimulus.html","rt":49143},{"block":"linear_testing","helps":0,"clicked":[["answer","clicked"],["A ","false"],["M ","false"],["D ","false"],["N ","false"],["B ","false"],["F ","false"],["H ","false"],["G ","false"],["O ","false"],["C ","false"],["J ","false"],["I ","false"],["E ","false"],["L ","false"],["K ","false"]],"answer":["6","8"],"correct":1,"scaffold":"none","question":"starts","scenario":"longmire","graph":"linear","condition":4,"session":"lima","experiment":"reverse","subject":"R7ORQ","internal_node_id":"0.0-9.0-5.0","time_elapsed":825887,"trial_index":27,"trial_type":"html","url":"../views/src/external/stimulus.html","rt":45429},{"block":"linear_testing","helps":0,"clicked":[["answer","clicked"],["A ","false"],["M ","false"],["D ","true"],["N ","false"],["B ","false"],["F ","false"],["H ","false"],["G ","false"],["O ","false"],["C ","false"],["J ","false"],["I ","true"],["E ","false"],["L ","false"],["K ","false"]],"answer":["C"],"correct":1,"scaffold":"none","question":"starts+finishes","scenario":"longmire","graph":"linear","condition":4,"session":"lima","experiment":"reverse","subject":"R7ORQ","internal_node_id":"0.0-9.0-9.0","time_elapsed":839726,"trial_index":28,"trial_type":"html","url":"../views/src/external/stimulus.html","rt":12586},{"block":"linear_testing","helps":0,"clicked":[["answer","clicked"],["A ","false"],["M ","false"],["D ","true"],["N ","false"],["B ","false"],["F ","false"],["H ","true"],["G ","false"],["O ","false"],["C ","false"],["J ","false"],["I ","false"],["E ","false"],["L ","false"],["K ","false"]],"answer":["A","M"],"correct":0,"scaffold":"none","question":"overlap+overlap","scenario":"longmire","graph":"linear","condition":4,"session":"lima","experiment":"reverse","subject":"R7ORQ","internal_node_id":"0.0-9.0-2.0","time_elapsed":860201,"trial_index":29,"trial_type":"html","url":"../views/src/external/stimulus.html","rt":19220},{"block":"linear_testing","helps":0,"clicked":[["answer","clicked"],["A ","false"],["M ","false"],["D ","false"],["N ","false"],["B ","false"],["F ","true"],["H ","false"],["G ","false"],["O ","false"],["C ","false"],["J ","false"],["I ","false"],["E ","false"],["L ","false"],["K ","false"]],"answer":["A","B","D","F"],"correct":1,"scaffold":"none","question":"start+duration","scenario":"longmire","graph":"linear","condition":4,"session":"lima","experiment":"reverse","subject":"R7ORQ","internal_node_id":"0.0-9.0-0.0","time_elapsed":879565,"trial_index":30,"trial_type":"html","url":"../views/src/external/stimulus.html","rt":18110},{"block":"linear_testing","helps":0,"clicked":[["answer","clicked"],["A ","false"],["M ","false"],["D ","true"],["N ","false"],["B ","false"],["F ","false"],["H ","true"],["G ","false"],["O ","false"],["C ","false"],["J ","false"],["I ","false"],["E ","false"],["L ","true"],["K ","false"]],"answer":["K","L"],"correct":1,"scaffold":"none","question":"during+overlap","scenario":"longmire","graph":"linear","condition":4,"session":"lima","experiment":"reverse","subject":"R7ORQ","internal_node_id":"0.0-9.0-3.0","time_elapsed":900412,"trial_index":31,"trial_type":"html","url":"../views/src/external/stimulus.html","rt":19595},{"block":"linear_testing","helps":0,"clicked":[["answer","clicked"],["A ","false"],["M ","false"],["D ","false"],["N ","true"],["B ","false"],["F ","false"],["H ","true"],["G ","false"],["O ","false"],["C ","true"],["J ","false"],["I ","true"],["E ","false"],["L ","false"],["K ","false"]],"answer":["A","B","C","D","F","I"],"correct":1,"scaffold":"none","question":"before+overlap","scenario":"longmire","graph":"linear","condition":4,"session":"lima","experiment":"reverse","subject":"R7ORQ","internal_node_id":"0.0-9.0-1.0","time_elapsed":932886,"trial_index":32,"trial_type":"html","url":"../views/src/external/stimulus.html","rt":31212},{"block":"linear_testing","helps":0,"clicked":[["answer","clicked"],["A ","false"],["M ","false"],["D ","false"],["N ","false"],["B ","false"],["F ","true"],["H ","true"],["G ","false"],["O ","false"],["C ","false"],["J ","false"],["I ","false"],["E ","false"],["L ","false"],["K ","false"]],"answer":["H","M","N","O"],"correct":0,"scaffold":"none","question":"meets","scenario":"longmire","graph":"linear","condition":4,"session":"lima","experiment":"reverse","subject":"R7ORQ","internal_node_id":"0.0-9.0-8.0","time_elapsed":965987,"trial_index":33,"trial_type":"html","url":"../views/src/external/stimulus.html","rt":31842},{"block":"linear_testing","helps":0,"clicked":[["answer","clicked"],["A ","false"],["M ","false"],["D ","false"],["N ","false"],["B ","false"],["F ","false"],["H ","false"],["G ","false"],["O ","false"],["C ","false"],["J ","false"],["I ","false"],["E ","true"],["L ","false"],["K ","false"]],"answer":["B","C","D","F","G"],"correct":1,"scaffold":"none","question":"during","scenario":"longmire","graph":"linear","condition":4,"session":"lima","experiment":"reverse","subject":"R7ORQ","internal_node_id":"0.0-9.0-7.0","time_elapsed":1012439,"trial_index":34,"trial_type":"html","url":"../views/src/external/stimulus.html","rt":45197},{"block":"linear_testing","helps":0,"clicked":[["answer","clicked"],["A ","false"],["M ","false"],["D ","false"],["N ","false"],["B ","false"],["F ","false"],["H ","false"],["G ","false"],["O ","false"],["C ","false"],["J ","false"],["I ","false"],["E ","false"],["L ","false"],["K ","false"]],"answer":["4"],"correct":0,"scaffold":"none","question":"finishes","scenario":"longmire","graph":"linear","condition":4,"session":"lima","experiment":"reverse","subject":"R7ORQ","internal_node_id":"0.0-9.0-6.0","time_elapsed":1036346,"trial_index":35,"trial_type":"html","url":"../views/src/external/stimulus.html","rt":22650},{"condition":4,"session":"lima","experiment":"reverse","subject":"R7ORQ","internal_node_id":"0.0-10.0","time_elapsed":1045991,"trial_index":36,"trial_type":"single-stim","block":"scenario-draw","key_press":13,"stimulus":"img/jones.png","rt":8639},{"condition":4,"session":"lima","experiment":"reverse","subject":"R7ORQ","internal_node_id":"0.0-11.0","time_elapsed":1569858,"trial_index":37,"trial_type":"html","block":"instructions_drawing","url":"../views/src/external/instructions_draw.html","rt":522766},{"block":"drawingTest","clicked":[["answer","clicked"]],"answer":[],"correct":0,"scaffold":"none","question":"duration","scenario":"jones","graph":"none","condition":4,"session":"lima","experiment":"reverse","subject":"R7ORQ","internal_node_id":"0.0-12.0","time_elapsed":1671712,"trial_index":38,"trial_type":"html","url":"../views/src/external/stimulus.html","rt":100501},{"block":"drawingTest","clicked":[["answer","clicked"]],"answer":["Chris","1-3pm","3-4pm"],"correct":0,"scaffold":"none","question":"overlap","scenario":"jones","graph":"none","condition":4,"session":"lima","experiment":"reverse","subject":"R7ORQ","internal_node_id":"0.0-13.0","time_elapsed":1737420,"trial_index":39,"trial_type":"html","url":"../views/src/external/stimulus.html","rt":64371},{"condition":4,"session":"lima","experiment":"reverse","subject":"R7ORQ","internal_node_id":"0.0-14.0","time_elapsed":1747525,"trial_index":40,"trial_type":"survey-text","block":"demo-1","responses":"{\"Q0\":\"19\",\"Q1\":\"United States\"}","rt":9097},{"condition":4,"session":"lima","experiment":"reverse","subject":"R7ORQ","internal_node_id":"0.0-15.0","time_elapsed":1773554,"trial_index":41,"trial_type":"survey-multi-choice","block":"demo-2","responses":"{\"Q0\":\"English\",\"Q1\":\"First\",\"Q2\":\"Social Sciences (incl. CogSci)\",\"Q3\":\"Female\",\"Q4\":\"the first one (linear\"}","rt":25019},{"condition":4,"session":"lima","experiment":"reverse","subject":"R7ORQ","internal_node_id":"0.0-16.0","time_elapsed":1804003,"trial_index":42,"trial_type":"html","block":"debrief","url":"../views/src/external/debrief.html","rt":29272}],"__v":0}
{"_id":{"$oid":"58c46eba8dfa930004a8082f"},"data":[{"condition":1,"session":"lima","experiment":"experiment","subject":"N87KU","internal_node_id":"0.0-0.0","time_elapsed":141121,"trial_index":0,"trial_type":"single-stim","block":"phone","key_press":13,"stimulus":"img/phone.png","rt":141117},{"condition":1,"session":"lima","experiment":"experiment","subject":"N87KU","internal_node_id":"0.0-1.0","time_elapsed":146236,"trial_index":1,"trial_type":"html","block":"consent","url":"../views/src/external/consent.html","rt":3946},{"condition":1,"session":"lima","experiment":"experiment","subject":"N87KU","internal_node_id":"0.0-2.0","time_elapsed":156617,"trial_index":2,"trial_type":"survey-text","block":"codes","responses":"{\"Q0\":\"LIMA\",\"Q1\":\"1\"}","rt":9374},{"condition":1,"session":"lima","experiment":"experiment","subject":"N87KU","internal_node_id":"0.0-3.0","time_elapsed":171334,"trial_index":3,"trial_type":"html","block":"instructions_lab","url":"../views/src/external/instructions_lab.html","rt":13623},{"condition":1,"session":"lima","experiment":"experiment","subject":"N87KU","internal_node_id":"0.0-4.0","time_elapsed":188465,"trial_index":4,"trial_type":"single-stim","block":"scenario-one","key_press":13,"stimulus":"img/axis.png","rt":16127},{"block":"linear_scaffolded","helps":0,"clicked":[["answer","clicked"],["M ","false"],["B ","false"],["J ","false"],["N ","false"],["D ","false"],["O ","false"],["K ","false"],["C ","false"],["F ","false"],["I ","false"],["H ","false"],["G ","false"],["L ","false"],["E ","false"],["A ","false"]],"answer":["H","O"],"correct":1,"scaffold":"describe-what","question":"start","scenario":"axis","graph":"linear","condition":1,"session":"lima","experiment":"experiment","subject":"N87KU","internal_node_id":"0.0-5.0-0.0","time_elapsed":208006,"trial_index":5,"trial_type":"html","url":"../views/src/external/stimulus.html","rt":18216},{"block":"linear_scaffolded","helps":0,"clicked":[["answer","clicked"],["M ","false"],["B ","false"],["J ","false"],["N ","false"],["D ","false"],["O ","false"],["K ","false"],["C ","false"],["F ","false"],["I ","false"],["H ","false"],["G ","false"],["L ","false"],["E ","false"],["A ","false"]],"answer":["4"],"correct":1,"scaffold":"describe-what","question":"end","scenario":"axis","graph":"linear","condition":1,"session":"lima","experiment":"experiment","subject":"N87KU","internal_node_id":"0.0-5.0-1.0","time_elapsed":221698,"trial_index":6,"trial_type":"html","url":"../views/src/external/stimulus.html","rt":12441},{"block":"linear_scaffolded","helps":0,"clicked":[["answer","clicked"],["M ","false"],["B ","false"],["J ","false"],["N ","false"],["D ","false"],["O ","false"],["K ","false"],["C ","false"],["F ","false"],["I ","false"],["H ","false"],["G ","false"],["L ","false"],["E ","false"],["A ","false"]],"answer":["A","C","E","F","G","H","I","K","L"],"correct":1,"scaffold":"describe-what","question":"duration","scenario":"axis","graph":"linear","condition":1,"session":"lima","experiment":"experiment","subject":"N87KU","internal_node_id":"0.0-5.0-2.0","time_elapsed":265608,"trial_index":7,"trial_type":"html","url":"../views/src/external/stimulus.html","rt":42663},{"block":"linear_scaffolded","helps":0,"clicked":[["answer","clicked"],["M ","false"],["B ","false"],["J ","false"],["N ","false"],["D ","false"],["O ","false"],["K ","false"],["C ","false"],["F ","false"],["I ","false"],["H ","false"],["G ","false"],["L ","false"],["E ","false"],["A ","false"]],"answer":["8"],"correct":1,"scaffold":"describe-what","question":"midpoint","scenario":"axis","graph":"linear","condition":1,"session":"lima","experiment":"experiment","subject":"N87KU","internal_node_id":"0.0-5.0-3.0","time_elapsed":297247,"trial_index":8,"trial_type":"html","url":"../views/src/external/stimulus.html","rt":30374},{"block":"linear_scaffolded","helps":0,"clicked":[["answer","clicked"],["M ","false"],["B ","false"],["J ","false"],["N ","false"],["D ","false"],["O ","false"],["K ","false"],["C ","false"],["F ","false"],["I ","false"],["H ","false"],["G ","false"],["L ","false"],["E ","false"],["A ","false"]],"answer":["7"],"correct":1,"scaffold":"describe-what","question":"start+overlap","scenario":"axis","graph":"linear","condition":1,"session":"lima","experiment":"experiment","subject":"N87KU","internal_node_id":"0.0-5.0-4.0","time_elapsed":314574,"trial_index":9,"trial_type":"html","url":"../views/src/external/stimulus.html","rt":16022},{"block":"linear_testing","helps":0,"clicked":[["answer","clicked"],["M ","false"],["B ","false"],["J ","false"],["N ","false"],["D ","false"],["O ","false"],["K ","false"],["C ","false"],["F ","false"],["I ","false"],["H ","false"],["G ","false"],["L ","false"],["E ","false"],["A ","false"]],"answer":["G"],"correct":1,"scaffold":"none","question":"meets","scenario":"axis","graph":"linear","condition":1,"session":"lima","experiment":"experiment","subject":"N87KU","internal_node_id":"0.0-6.0-8.0","time_elapsed":372979,"trial_index":10,"trial_type":"html","url":"../views/src/external/stimulus.html","rt":57146},{"block":"linear_testing","helps":0,"clicked":[["answer","clicked"],["M ","false"],["B ","false"],["J ","false"],["N ","false"],["D ","false"],["O ","false"],["K ","false"],["C ","false"],["F ","false"],["I ","false"],["H ","false"],["G ","false"],["L ","false"],["E ","false"],["A ","false"]],"answer":["G","O"],"correct":1,"scaffold":"none","question":"finishes","scenario":"axis","graph":"linear","condition":1,"session":"lima","experiment":"experiment","subject":"N87KU","internal_node_id":"0.0-6.0-6.0","time_elapsed":387599,"trial_index":11,"trial_type":"html","url":"../views/src/external/stimulus.html","rt":13369},{"block":"linear_testing","helps":0,"clicked":[["answer","clicked"],["M ","false"],["B ","false"],["J ","false"],["N ","false"],["D ","false"],["O ","false"],["K ","false"],["C ","false"],["F ","false"],["I ","false"],["H ","false"],["G ","false"],["L ","false"],["E ","false"],["A ","false"]],"answer":["D","M","N","O"],"correct":1,"scaffold":"none","question":"contain+duration","scenario":"axis","graph":"linear","condition":1,"session":"lima","experiment":"experiment","subject":"N87KU","internal_node_id":"0.0-6.0-4.0","time_elapsed":424066,"trial_index":12,"trial_type":"html","url":"../views/src/external/stimulus.html","rt":35219},{"block":"linear_testing","helps":0,"clicked":[["answer","clicked"],["M ","false"],["B ","false"],["J ","false"],["N ","false"],["D ","false"],["O ","false"],["K ","false"],["C ","false"],["F ","false"],["I ","false"],["H ","false"],["G ","false"],["L ","false"],["E ","false"],["A ","false"]],"answer":["4"],"correct":0,"scaffold":"none","question":"starts","scenario":"axis","graph":"linear","condition":1,"session":"lima","experiment":"experiment","subject":"N87KU","internal_node_id":"0.0-6.0-5.0","time_elapsed":445248,"trial_index":13,"trial_type":"html","url":"../views/src/external/stimulus.html","rt":19932},{"block":"linear_testing","helps":0,"clicked":[["answer","clicked"],["M ","false"],["B ","false"],["J ","false"],["N ","false"],["D ","false"],["O ","false"],["K ","false"],["C ","false"],["F ","false"],["I ","false"],["H ","false"],["G ","false"],["L ","false"],["E ","false"],["A ","false"]],"answer":["F","M","O"],"correct":1,"scaffold":"none","question":"during","scenario":"axis","graph":"linear","condition":1,"session":"lima","experiment":"experiment","subject":"N87KU","internal_node_id":"0.0-6.0-7.0","time_elapsed":469726,"trial_index":14,"trial_type":"html","url":"../views/src/external/stimulus.html","rt":23223},{"block":"linear_testing","helps":0,"clicked":[["answer","clicked"],["M ","false"],["B ","false"],["J ","false"],["N ","false"],["D ","false"],["O ","false"],["K ","false"],["C ","false"],["F ","false"],["I ","false"],["H ","false"],["G ","false"],["L ","false"],["E ","false"],["A ","false"]],"answer":["A"],"correct":1,"scaffold":"none","question":"during+overlap","scenario":"axis","graph":"linear","condition":1,"session":"lima","experiment":"experiment","subject":"N87KU","internal_node_id":"0.0-6.0-3.0","time_elapsed":491558,"trial_index":15,"trial_type":"html","url":"../views/src/external/stimulus.html","rt":20586},{"block":"linear_testing","helps":0,"clicked":[["answer","clicked"],["M ","false"],["B ","false"],["J ","false"],["N ","false"],["D ","false"],["O ","false"],["K ","false"],["C ","false"],["F ","false"],["I ","false"],["H ","false"],["G ","false"],["L ","false"],["E ","false"],["A ","false"]],"answer":["G"],"correct":1,"scaffold":"none","question":"starts+finishes","scenario":"axis","graph":"linear","condition":1,"session":"lima","experiment":"experiment","subject":"N87KU","internal_node_id":"0.0-6.0-9.0","time_elapsed":517976,"trial_index":16,"trial_type":"html","url":"../views/src/external/stimulus.html","rt":25163},{"block":"linear_testing","helps":0,"clicked":[["answer","clicked"],["M ","false"],["B ","false"],["J ","false"],["N ","false"],["D ","false"],["O ","false"],["K ","false"],["C ","false"],["F ","false"],["I ","false"],["H ","false"],["G ","false"],["L ","false"],["E ","false"],["A ","false"]],"answer":["A","B","C","E","J"],"correct":1,"scaffold":"none","question":"overlap+overlap","scenario":"axis","graph":"linear","condition":1,"session":"lima","experiment":"experiment","subject":"N87KU","internal_node_id":"0.0-6.0-2.0","time_elapsed":546670,"trial_index":17,"trial_type":"html","url":"../views/src/external/stimulus.html","rt":27440},{"block":"linear_testing","helps":0,"clicked":[["answer","clicked"],["M ","false"],["B ","false"],["J ","false"],["N ","false"],["D ","false"],["O ","false"],["K ","false"],["C ","false"],["F ","false"],["I ","false"],["H ","false"],["G ","false"],["L ","false"],["E ","false"],["A ","false"]],"answer":["9"],"correct":1,"scaffold":"none","question":"start+duration","scenario":"axis","graph":"linear","condition":1,"session":"lima","experiment":"experiment","subject":"N87KU","internal_node_id":"0.0-6.0-0.0","time_elapsed":576453,"trial_index":18,"trial_type":"html","url":"../views/src/external/stimulus.html","rt":28529},{"block":"linear_testing","helps":0,"clicked":[["answer","clicked"],["M ","false"],["B ","false"],["J ","false"],["N ","false"],["D ","false"],["O ","false"],["K ","false"],["C ","false"],["F ","false"],["I ","false"],["H ","false"],["G ","false"],["L ","false"],["E ","false"],["A ","false"]],"answer":["F","M","O"],"correct":0,"scaffold":"none","question":"before+overlap","scenario":"axis","graph":"linear","condition":1,"session":"lima","experiment":"experiment","subject":"N87KU","internal_node_id":"0.0-6.0-1.0","time_elapsed":604978,"trial_index":19,"trial_type":"html","url":"../views/src/external/stimulus.html","rt":27272},{"condition":1,"session":"lima","experiment":"experiment","subject":"N87KU","internal_node_id":"0.0-7.0","time_elapsed":612246,"trial_index":20,"trial_type":"single-stim","block":"scenario-two","key_press":13,"stimulus":"img/longmire.png","rt":6263},{"block":"triangular_scaffolded","helps":0,"clicked":[["answer","clicked"],["A ","false"],["M ","false"],["D ","false"],["N ","false"],["B ","false"],["F ","false"],["H ","false"],["G ","false"],["O ","false"],["C ","false"],["J ","false"],["I ","false"],["E ","false"],["L ","false"],["K ","false"]],"answer":["C","D","L"],"correct":1,"scaffold":"describe-what","question":"start","scenario":"longmire","graph":"triangular","condition":1,"session":"lima","experiment":"experiment","subject":"N87KU","internal_node_id":"0.0-8.0-0.0","time_elapsed":637829,"trial_index":21,"trial_type":"html","url":"../views/src/external/stimulus.html","rt":24336},{"block":"triangular_scaffolded","helps":0,"clicked":[["answer","clicked"],["A ","false"],["M ","false"],["D ","false"],["N ","false"],["B ","false"],["F ","false"],["H ","false"],["G ","false"],["O ","false"],["C ","false"],["J ","false"],["I ","false"],["E ","false"],["L ","false"],["K ","false"]],"answer":["M","N"],"correct":0,"scaffold":"describe-what","question":"end","scenario":"longmire","graph":"triangular","condition":1,"session":"lima","experiment":"experiment","subject":"N87KU","internal_node_id":"0.0-8.0-1.0","time_elapsed":713757,"trial_index":22,"trial_type":"html","url":"../views/src/external/stimulus.html","rt":74684},{"block":"triangular_scaffolded","helps":0,"clicked":[["answer","clicked"],["A ","false"],["M ","false"],["D ","false"],["N ","false"],["B ","false"],["F ","false"],["H ","false"],["G ","false"],["O ","false"],["C ","false"],["J ","false"],["I ","false"],["E ","false"],["L ","false"],["K ","false"]],"answer":["B","D"],"correct":0,"scaffold":"describe-what","question":"duration","scenario":"longmire","graph":"triangular","condition":1,"session":"lima","experiment":"experiment","subject":"N87KU","internal_node_id":"0.0-8.0-2.0","time_elapsed":755840,"trial_index":23,"trial_type":"html","url":"../views/src/external/stimulus.html","rt":40735},{"block":"triangular_scaffolded","helps":0,"clicked":[["answer","clicked"],["A ","false"],["M ","false"],["D ","false"],["N ","false"],["B ","false"],["F ","false"],["H ","false"],["G ","false"],["O ","false"],["C ","false"],["J ","false"],["I ","false"],["E ","false"],["L ","false"],["K ","false"]],"answer":["1"],"correct":1,"scaffold":"describe-what","question":"midpoint","scenario":"longmire","graph":"triangular","condition":1,"session":"lima","experiment":"experiment","subject":"N87KU","internal_node_id":"0.0-8.0-3.0","time_elapsed":776290,"trial_index":24,"trial_type":"html","url":"../views/src/external/stimulus.html","rt":19189},{"block":"triangular_scaffolded","helps":0,"clicked":[["answer","clicked"],["A ","false"],["M ","false"],["D ","false"],["N ","false"],["B ","false"],["F ","false"],["H ","false"],["G ","false"],["O ","false"],["C ","false"],["J ","false"],["I ","false"],["E ","false"],["L ","false"],["K ","false"]],"answer":["A"],"correct":1,"scaffold":"describe-what","question":"start+overlap","scenario":"longmire","graph":"triangular","condition":1,"session":"lima","experiment":"experiment","subject":"N87KU","internal_node_id":"0.0-8.0-4.0","time_elapsed":786470,"trial_index":25,"trial_type":"html","url":"../views/src/external/stimulus.html","rt":8930},{"block":"triangular_testing","helps":0,"answer":["A","B","C","D","F","I"],"clicked":[["answer","clicked"],["A ","false"],["M ","false"],["D ","false"],["N ","false"],["B ","false"],["F ","false"],["H ","false"],["G ","false"],["O ","false"],["C ","false"],["J ","false"],["I ","false"],["E ","false"],["L ","false"],["K ","false"]],"correct":1,"scaffold":"none","question":"before+overlap","scenario":"longmire","graph":"triangular","condition":1,"session":"lima","experiment":"experiment","subject":"N87KU","internal_node_id":"0.0-9.0-1.0","time_elapsed":813078,"trial_index":26,"trial_type":"html","url":"../views/src/external/stimulus.html","rt":25315},{"block":"triangular_testing","helps":0,"answer":["G","O"],"clicked":[["answer","clicked"],["A ","false"],["M ","false"],["D ","false"],["N ","false"],["B ","false"],["F ","false"],["H ","false"],["G ","false"],["O ","false"],["C ","false"],["J ","false"],["I ","false"],["E ","false"],["L ","false"],["K ","false"]],"correct":1,"scaffold":"none","question":"contain+duration","scenario":"longmire","graph":"triangular","condition":1,"session":"lima","experiment":"experiment","subject":"N87KU","internal_node_id":"0.0-9.0-4.0","time_elapsed":836479,"trial_index":27,"trial_type":"html","url":"../views/src/external/stimulus.html","rt":22082},{"block":"triangular_testing","helps":0,"answer":["4"],"clicked":[["answer","clicked"],["A ","false"],["M ","false"],["D ","false"],["N ","false"],["B ","false"],["F ","false"],["H ","false"],["G ","false"],["O ","false"],["C ","false"],["J ","false"],["I ","false"],["E ","false"],["L ","false"],["K ","false"]],"correct":0,"scaffold":"none","question":"finishes","scenario":"longmire","graph":"triangular","condition":1,"session":"lima","experiment":"experiment","subject":"N87KU","internal_node_id":"0.0-9.0-6.0","time_elapsed":871567,"trial_index":28,"trial_type":"html","url":"../views/src/external/stimulus.html","rt":33840},{"block":"triangular_testing","helps":0,"answer":["C"],"clicked":[["answer","clicked"],["A ","false"],["M ","false"],["D ","false"],["N ","false"],["B ","false"],["F ","false"],["H ","false"],["G ","false"],["O ","false"],["C ","false"],["J ","false"],["I ","false"],["E ","false"],["L ","false"],["K ","false"]],"correct":1,"scaffold":"none","question":"starts+finishes","scenario":"longmire","graph":"triangular","condition":1,"session":"lima","experiment":"experiment","subject":"N87KU","internal_node_id":"0.0-9.0-9.0","time_elapsed":891431,"trial_index":29,"trial_type":"html","url":"../views/src/external/stimulus.html","rt":18614},{"block":"triangular_testing","helps":0,"answer":["O"],"clicked":[["answer","clicked"],["A ","false"],["M ","false"],["D ","false"],["N ","false"],["B ","false"],["F ","false"],["H ","false"],["G ","false"],["O ","false"],["C ","false"],["J ","false"],["I ","false"],["E ","false"],["L ","false"],["K ","false"]],"correct":1,"scaffold":"none","question":"meets","scenario":"longmire","graph":"triangular","condition":1,"session":"lima","experiment":"experiment","subject":"N87KU","internal_node_id":"0.0-9.0-8.0","time_elapsed":905640,"trial_index":30,"trial_type":"html","url":"../views/src/external/stimulus.html","rt":12957},{"block":"triangular_testing","helps":0,"answer":["L"],"clicked":[["answer","clicked"],["A ","false"],["M ","false"],["D ","false"],["N ","false"],["B ","false"],["F ","false"],["H ","false"],["G ","false"],["O ","false"],["C ","false"],["J ","false"],["I ","false"],["E ","false"],["L ","false"],["K ","false"]],"correct":0,"scaffold":"none","question":"during+overlap","scenario":"longmire","graph":"triangular","condition":1,"session":"lima","experiment":"experiment","subject":"N87KU","internal_node_id":"0.0-9.0-3.0","time_elapsed":937397,"trial_index":31,"trial_type":"html","url":"../views/src/external/stimulus.html","rt":30506},{"block":"triangular_testing","helps":0,"answer":["6","8"],"clicked":[["answer","clicked"],["A ","false"],["M ","false"],["D ","false"],["N ","false"],["B ","false"],["F ","false"],["H ","false"],["G ","false"],["O ","false"],["C ","false"],["J ","false"],["I ","false"],["E ","false"],["L ","false"],["K ","false"]],"correct":1,"scaffold":"none","question":"starts","scenario":"longmire","graph":"triangular","condition":1,"session":"lima","experiment":"experiment","subject":"N87KU","internal_node_id":"0.0-9.0-5.0","time_elapsed":958781,"trial_index":32,"trial_type":"html","url":"../views/src/external/stimulus.html","rt":20134},{"block":"triangular_testing","helps":0,"answer":["A","B","D","F"],"clicked":[["answer","clicked"],["A ","false"],["M ","false"],["D ","false"],["N ","false"],["B ","false"],["F ","false"],["H ","false"],["G ","false"],["O ","false"],["C ","false"],["J ","false"],["I ","false"],["E ","false"],["L ","false"],["K ","false"]],"correct":1,"scaffold":"none","question":"start+duration","scenario":"longmire","graph":"triangular","condition":1,"session":"lima","experiment":"experiment","subject":"N87KU","internal_node_id":"0.0-9.0-0.0","time_elapsed":1003359,"trial_index":33,"trial_type":"html","url":"../views/src/external/stimulus.html","rt":43324},{"block":"triangular_testing","helps":0,"answer":["A","M"],"clicked":[["answer","clicked"],["A ","false"],["M ","false"],["D ","false"],["N ","false"],["B ","false"],["F ","true"],["H ","false"],["G ","false"],["O ","false"],["C ","false"],["J ","false"],["I ","false"],["E ","false"],["L ","false"],["K ","false"]],"correct":0,"scaffold":"none","question":"overlap+overlap","scenario":"longmire","graph":"triangular","condition":1,"session":"lima","experiment":"experiment","subject":"N87KU","internal_node_id":"0.0-9.0-2.0","time_elapsed":1032028,"trial_index":34,"trial_type":"html","url":"../views/src/external/stimulus.html","rt":27421},{"block":"triangular_testing","helps":0,"answer":["B","C","F","G"],"clicked":[["answer","clicked"],["A ","false"],["M ","false"],["D ","true"],["N ","false"],["B ","true"],["F ","true"],["H ","false"],["G ","true"],["O ","false"],["C ","true"],["J ","false"],["I ","false"],["E ","true"],["L ","false"],["K ","false"]],"correct":0,"scaffold":"none","question":"during","scenario":"longmire","graph":"triangular","condition":1,"session":"lima","experiment":"experiment","subject":"N87KU","internal_node_id":"0.0-9.0-7.0","time_elapsed":1082945,"trial_index":35,"trial_type":"html","url":"../views/src/external/stimulus.html","rt":49663},{"condition":1,"session":"lima","experiment":"experiment","subject":"N87KU","internal_node_id":"0.0-10.0","time_elapsed":1095421,"trial_index":36,"trial_type":"single-stim","block":"scenario-draw","key_press":13,"stimulus":"img/jones.png","rt":11471},{"condition":1,"session":"lima","experiment":"experiment","subject":"N87KU","internal_node_id":"0.0-11.0","time_elapsed":1656407,"trial_index":37,"trial_type":"html","block":"instructions_drawing","url":"../views/src/external/instructions_draw.html","rt":559891},{"block":"drawingTest","clicked":[["answer","clicked"]],"answer":["A1"],"correct":0,"scaffold":"none","question":"duration","scenario":"jones","graph":"none","condition":1,"session":"lima","experiment":"experiment","subject":"N87KU","internal_node_id":"0.0-12.0","time_elapsed":1687494,"trial_index":38,"trial_type":"html","url":"../views/src/external/stimulus.html","rt":29742},{"block":"drawingTest","clicked":[["answer","clicked"]],"answer":["Chris","3-4pm"],"correct":1,"scaffold":"none","question":"overlap","scenario":"jones","graph":"none","condition":1,"session":"lima","experiment":"experiment","subject":"N87KU","internal_node_id":"0.0-13.0","time_elapsed":1740735,"trial_index":39,"trial_type":"html","url":"../views/src/external/stimulus.html","rt":51987},{"condition":1,"session":"lima","experiment":"experiment","subject":"N87KU","internal_node_id":"0.0-14.0","time_elapsed":1748314,"trial_index":40,"trial_type":"survey-text","block":"demo-1","responses":"{\"Q0\":\"19\",\"Q1\":\"India\"}","rt":6570},{"condition":1,"session":"lima","experiment":"experiment","subject":"N87KU","internal_node_id":"0.0-15.0","time_elapsed":1772180,"trial_index":41,"trial_type":"survey-multi-choice","block":"demo-2","responses":"{\"Q0\":\"Other\",\"Q1\":\"Second\",\"Q2\":\"Biomedical \u0026 Health Sciences\",\"Q3\":\"Male\",\"Q4\":\"the second one (triangular)\"}","rt":22841},{"condition":1,"session":"lima","experiment":"experiment","subject":"N87KU","internal_node_id":"0.0-16.0","time_elapsed":1782282,"trial_index":42,"trial_type":"html","block":"debrief","url":"../views/src/external/debrief.html","rt":8928}],"__v":0}
{"_id":{"$oid":"58c46ebb8dfa930004a80830"},"data":[{"condition":0,"session":"lima","experiment":"reverse","subject":"VZJRM","internal_node_id":"0.0-0.0","time_elapsed":135393,"trial_index":0,"trial_type":"single-stim","block":"phone","key_press":13,"stimulus":"img/phone.png","rt":135389},{"condition":0,"session":"4","experiment":"reverse","subject":"VZJRM","internal_node_id":"0.0-1.0","time_elapsed":147485,"trial_index":1,"trial_type":"html","block":"consent","url":"../views/src/external/consent.html","rt":10904},{"condition":0,"session":"4","experiment":"reverse","subject":"VZJRM","internal_node_id":"0.0-2.0","time_elapsed":156501,"trial_index":2,"trial_type":"survey-text","block":"codes","responses":"{\"Q0\":\"4\",\"Q1\":\"LIMA\"}","rt":8006},{"condition":0,"session":"4","experiment":"reverse","subject":"VZJRM","internal_node_id":"0.0-3.0","time_elapsed":172885,"trial_index":3,"trial_type":"html","block":"instructions_lab","url":"../views/src/external/instructions_lab.html","rt":15284},{"condition":0,"session":"4","experiment":"reverse","subject":"VZJRM","internal_node_id":"0.0-4.0","time_elapsed":184097,"trial_index":4,"trial_type":"single-stim","block":"scenario-two","key_press":13,"stimulus":"img/longmire.png","rt":10210},{"block":"triangular_scaffolded","helps":0,"clicked":[["answer","clicked"],["A ","false"],["M ","false"],["D ","false"],["N ","false"],["B ","false"],["F ","false"],["H ","false"],["G ","false"],["O ","false"],["C ","false"],["J ","false"],["I ","false"],["E ","false"],["L ","false"],["K ","false"]],"answer":["D"],"correct":0,"scaffold":"none","question":"start","scenario":"longmire","graph":"triangular","condition":0,"session":"4","experiment":"reverse","subject":"VZJRM","internal_node_id":"0.0-5.0-0.0","time_elapsed":242348,"trial_index":5,"trial_type":"html","url":"../views/src/external/stimulus.html","rt":56902},{"block":"triangular_scaffolded","helps":0,"clicked":[["answer","clicked"],["A ","false"],["M ","false"],["D ","false"],["N ","false"],["B ","false"],["F ","false"],["H ","false"],["G ","false"],["O ","false"],["C ","false"],["J ","false"],["I ","false"],["E ","false"],["L ","false"],["K ","false"]],"answer":["E","G"],"correct":0,"scaffold":"none","question":"end","scenario":"longmire","graph":"triangular","condition":0,"session":"4","experiment":"reverse","subject":"VZJRM","internal_node_id":"0.0-5.0-1.0","time_elapsed":268528,"trial_index":6,"trial_type":"html","url":"../views/src/external/stimulus.html","rt":24930},{"block":"triangular_scaffolded","helps":0,"clicked":[["answer","clicked"],["A ","false"],["M ","false"],["D ","false"],["N ","false"],["B ","false"],["F ","false"],["H ","false"],["G ","false"],["O ","false"],["C ","false"],["J ","false"],["I ","false"],["E ","false"],["L ","false"],["K ","false"]],"answer":["G","O"],"correct":1,"scaffold":"none","question":"duration","scenario":"longmire","graph":"triangular","condition":0,"session":"4","experiment":"reverse","subject":"VZJRM","internal_node_id":"0.0-5.0-2.0","time_elapsed":288095,"trial_index":7,"trial_type":"html","url":"../views/src/external/stimulus.html","rt":18206},{"block":"triangular_scaffolded","helps":0,"clicked":[["answer","clicked"],["A ","false"],["M ","false"],["D ","false"],["N ","false"],["B ","false"],["F ","false"],["H ","false"],["G ","false"],["O ","false"],["C ","false"],["J ","false"],["I ","false"],["E ","false"],["L ","false"],["K ","false"]],"answer":["1"],"correct":1,"scaffold":"none","question":"midpoint","scenario":"longmire","graph":"triangular","condition":0,"session":"4","experiment":"reverse","subject":"VZJRM","internal_node_id":"0.0-5.0-3.0","time_elapsed":303047,"trial_index":8,"trial_type":"html","url":"../views/src/external/stimulus.html","rt":13696},{"block":"triangular_scaffolded","helps":0,"clicked":[["answer","clicked"],["A ","false"],["M ","false"],["D ","false"],["N ","false"],["B ","false"],["F ","false"],["H ","false"],["G ","false"],["O ","false"],["C ","false"],["J ","false"],["I ","false"],["E ","false"],["L ","false"],["K ","false"]],"answer":["A"],"correct":1,"scaffold":"none","question":"start+overlap","scenario":"longmire","graph":"triangular","condition":0,"session":"4","experiment":"reverse","subject":"VZJRM","internal_node_id":"0.0-5.0-4.0","time_elapsed":315895,"trial_index":9,"trial_type":"html","url":"../views/src/external/stimulus.html","rt":11592},{"block":"triangular_testing","helps":0,"answer":["M","N"],"clicked":[["answer","clicked"],["A ","false"],["M ","false"],["D ","false"],["N ","false"],["B ","false"],["F ","false"],["H ","false"],["G ","false"],["O ","false"],["C ","false"],["J ","false"],["I ","false"],["E ","false"],["L ","false"],["K ","false"]],"correct":0,"scaffold":"none","question":"during","scenario":"longmire","graph":"triangular","condition":0,"session":"4","experiment":"reverse","subject":"VZJRM","internal_node_id":"0.0-6.0-7.0","time_elapsed":361379,"trial_index":10,"trial_type":"html","url":"../views/src/external/stimulus.html","rt":44165},{"block":"triangular_testing","helps":0,"answer":["A","B","D","F"],"clicked":[["answer","clicked"],["A ","false"],["M ","false"],["D ","false"],["N ","false"],["B ","false"],["F ","false"],["H ","false"],["G ","false"],["O ","false"],["C ","false"],["J ","false"],["I ","false"],["E ","false"],["L ","false"],["K ","false"]],"correct":1,"scaffold":"none","question":"start+duration","scenario":"longmire","graph":"triangular","condition":0,"session":"4","experiment":"reverse","subject":"VZJRM","internal_node_id":"0.0-6.0-0.0","time_elapsed":387988,"trial_index":11,"trial_type":"html","url":"../views/src/external/stimulus.html","rt":25359},{"block":"triangular_testing","helps":0,"answer":["K","L"],"clicked":[["answer","clicked"],["A ","false"],["M ","false"],["D ","false"],["N ","false"],["B ","false"],["F ","false"],["H ","false"],["G ","false"],["O ","false"],["C ","false"],["J ","false"],["I ","false"],["E ","false"],["L ","false"],["K ","false"]],"correct":1,"scaffold":"none","question":"during+overlap","scenario":"longmire","graph":"triangular","condition":0,"session":"4","experiment":"reverse","subject":"VZJRM","internal_node_id":"0.0-6.0-3.0","time_elapsed":438189,"trial_index":12,"trial_type":"html","url":"../views/src/external/stimulus.html","rt":48952},{"block":"triangular_testing","helps":0,"answer":["6","8"],"clicked":[["answer","clicked"],["A ","false"],["M ","false"],["D ","false"],["N ","false"],["B ","false"],["F ","false"],["H ","false"],["G ","false"],["O ","false"],["C ","false"],["J ","false"],["I ","false"],["E ","false"],["L ","false"],["K ","false"]],"correct":1,"scaffold":"none","question":"starts","scenario":"longmire","graph":"triangular","condition":0,"session":"4","experiment":"reverse","subject":"VZJRM","internal_node_id":"0.0-6.0-5.0","time_elapsed":465621,"trial_index":13,"trial_type":"html","url":"../views/src/external/stimulus.html","rt":26183},{"block":"triangular_testing","helps":0,"answer":["G","O"],"clicked":[["answer","clicked"],["A ","false"],["M ","false"],["D ","false"],["N ","false"],["B ","false"],["F ","false"],["H ","false"],["G ","false"],["O ","false"],["C ","false"],["J ","false"],["I ","false"],["E ","false"],["L ","false"],["K ","false"]],"correct":1,"scaffold":"none","question":"contain+duration","scenario":"longmire","graph":"triangular","condition":0,"session":"4","experiment":"reverse","subject":"VZJRM","internal_node_id":"0.0-6.0-4.0","time_elapsed":485564,"trial_index":14,"trial_type":"html","url":"../views/src/external/stimulus.html","rt":18695},{"block":"triangular_testing","helps":0,"answer":["C"],"clicked":[["answer","clicked"],["A ","false"],["M ","false"],["D ","false"],["N ","false"],["B ","false"],["F ","false"],["H ","false"],["G ","false"],["O ","false"],["C ","false"],["J ","false"],["I ","false"],["E ","false"],["L ","false"],["K ","false"]],"correct":1,"scaffold":"none","question":"starts+finishes","scenario":"longmire","graph":"triangular","condition":0,"session":"4","experiment":"reverse","subject":"VZJRM","internal_node_id":"0.0-6.0-9.0","time_elapsed":499888,"trial_index":15,"trial_type":"html","url":"../views/src/external/stimulus.html","rt":13074},{"block":"triangular_testing","helps":0,"answer":["A","B","C","D","F","I","M"],"clicked":[["answer","clicked"],["A ","false"],["M ","false"],["D ","false"],["N ","false"],["B ","false"],["F ","false"],["H ","false"],["G ","false"],["O ","false"],["C ","false"],["J ","false"],["I ","false"],["E ","false"],["L ","false"],["K ","false"]],"correct":0,"scaffold":"none","question":"before+overlap","scenario":"longmire","graph":"triangular","condition":0,"session":"4","experiment":"reverse","subject":"VZJRM","internal_node_id":"0.0-6.0-1.0","time_elapsed":566986,"trial_index":16,"trial_type":"html","url":"../views/src/external/stimulus.html","rt":65844},{"block":"triangular_testing","helps":0,"answer":["4","5"],"clicked":[["answer","clicked"],["A ","false"],["M ","false"],["D ","false"],["N ","false"],["B ","false"],["F ","false"],["H ","false"],["G ","false"],["O ","false"],["C ","false"],["J ","false"],["I ","false"],["E ","false"],["L ","false"],["K ","false"]],"correct":1,"scaffold":"none","question":"finishes","scenario":"longmire","graph":"triangular","condition":0,"session":"4","experiment":"reverse","subject":"VZJRM","internal_node_id":"0.0-6.0-6.0","time_elapsed":584507,"trial_index":17,"trial_type":"html","url":"../views/src/external/stimulus.html","rt":16185},{"block":"triangular_testing","helps":0,"answer":["O"],"clicked":[["answer","clicked"],["A ","false"],["M ","false"],["D ","false"],["N ","false"],["B ","false"],["F ","false"],["H ","false"],["G ","false"],["O ","false"],["C ","false"],["J ","false"],["I ","false"],["E ","false"],["L ","false"],["K ","false"]],"correct":1,"scaffold":"none","question":"meets","scenario":"longmire","graph":"triangular","condition":0,"session":"4","experiment":"reverse","subject":"VZJRM","internal_node_id":"0.0-6.0-8.0","time_elapsed":603153,"trial_index":18,"trial_type":"html","url":"../views/src/external/stimulus.html","rt":17396},{"block":"triangular_testing","helps":0,"answer":["A","M","N"],"clicked":[["answer","clicked"],["A ","false"],["M ","false"],["D ","false"],["N ","false"],["B ","false"],["F ","false"],["H ","false"],["G ","false"],["O ","false"],["C ","false"],["J ","false"],["I ","false"],["E ","false"],["L ","false"],["K ","false"]],"correct":1,"scaffold":"none","question":"overlap+overlap","scenario":"longmire","graph":"triangular","condition":0,"session":"4","experiment":"reverse","subject":"VZJRM","internal_node_id":"0.0-6.0-2.0","time_elapsed":647438,"trial_index":19,"trial_type":"html","url":"../views/src/external/stimulus.html","rt":43031},{"condition":0,"session":"4","experiment":"reverse","subject":"VZJRM","internal_node_id":"0.0-7.0","time_elapsed":667127,"trial_index":20,"trial_type":"single-stim","block":"scenario-one","key_press":13,"stimulus":"img/axis.png","rt":18685},{"block":"linear_scaffolded","helps":0,"clicked":[["answer","clicked"],["M ","false"],["B ","false"],["J ","false"],["N ","false"],["D ","false"],["O ","false"],["K ","false"],["C ","false"],["F ","false"],["I ","false"],["H ","false"],["G ","false"],["L ","false"],["E ","false"],["A ","false"]],"answer":["H","O"],"correct":1,"scaffold":"none","question":"start","scenario":"axis","graph":"linear","condition":0,"session":"4","experiment":"reverse","subject":"VZJRM","internal_node_id":"0.0-8.0-0.0","time_elapsed":684558,"trial_index":21,"trial_type":"html","url":"../views/src/external/stimulus.html","rt":16175},{"block":"linear_scaffolded","helps":0,"clicked":[["answer","clicked"],["M ","false"],["B ","false"],["J ","false"],["N ","false"],["D ","false"],["O ","false"],["K ","false"],["C ","false"],["F ","false"],["I ","false"],["H ","false"],["G ","false"],["L ","false"],["E ","false"],["A ","false"]],"answer":["4"],"correct":1,"scaffold":"none","question":"end","scenario":"axis","graph":"linear","condition":0,"session":"4","experiment":"reverse","subject":"VZJRM","internal_node_id":"0.0-8.0-1.0","time_elapsed":698685,"trial_index":22,"trial_type":"html","url":"../views/src/external/stimulus.html","rt":12881},{"block":"linear_scaffolded","helps":0,"clicked":[["answer","clicked"],["M ","false"],["B ","false"],["J ","false"],["N ","false"],["D ","false"],["O ","false"],["K ","false"],["C ","false"],["F ","false"],["I ","false"],["H ","false"],["G ","false"],["L ","false"],["E ","false"],["A ","false"]],"answer":["A","C","E","F","G","H","I","K","L"],"correct":1,"scaffold":"none","question":"duration","scenario":"axis","graph":"linear","condition":0,"session":"4","experiment":"reverse","subject":"VZJRM","internal_node_id":"0.0-8.0-2.0","time_elapsed":751844,"trial_index":23,"trial_type":"html","url":"../views/src/external/stimulus.html","rt":51903},{"block":"linear_scaffolded","helps":0,"clicked":[["answer","clicked"],["M ","false"],["B ","false"],["J ","false"],["N ","false"],["D ","false"],["O ","false"],["K ","false"],["C ","false"],["F ","false"],["I ","false"],["H ","false"],["G ","false"],["L ","false"],["E ","false"],["A ","false"]],"answer":["10"],"correct":0,"scaffold":"none","question":"midpoint","scenario":"axis","graph":"linear","condition":0,"session":"4","experiment":"reverse","subject":"VZJRM","internal_node_id":"0.0-8.0-3.0","time_elapsed":798645,"trial_index":24,"trial_type":"html","url":"../views/src/external/stimulus.html","rt":45544},{"block":"linear_scaffolded","helps":0,"clicked":[["answer","clicked"],["M ","false"],["B ","false"],["J ","false"],["N ","false"],["D ","false"],["O ","false"],["K ","false"],["C ","false"],["F ","false"],["I ","false"],["H ","false"],["G ","false"],["L ","false"],["E ","false"],["A ","false"]],"answer":["7"],"correct":1,"scaffold":"none","question":"start+overlap","scenario":"axis","graph":"linear","condition":0,"session":"4","experiment":"reverse","subject":"VZJRM","internal_node_id":"0.0-8.0-4.0","time_elapsed":821190,"trial_index":25,"trial_type":"html","url":"../views/src/external/stimulus.html","rt":21293},{"block":"linear_testing","helps":0,"clicked":[["answer","clicked"],["M ","false"],["B ","false"],["J ","false"],["N ","false"],["D ","false"],["O ","false"],["K ","false"],["C ","false"],["F ","false"],["I ","false"],["H ","false"],["G ","false"],["L ","false"],["E ","false"],["A ","false"]],"answer":["6"],"correct":1,"scaffold":"none","question":"starts","scenario":"axis","graph":"linear","condition":0,"session":"4","experiment":"reverse","subject":"VZJRM","internal_node_id":"0.0-9.0-5.0","time_elapsed":850509,"trial_index":26,"trial_type":"html","url":"../views/src/external/stimulus.html","rt":28068},{"block":"linear_testing","helps":0,"clicked":[["answer","clicked"],["M ","false"],["B ","false"],["J ","false"],["N ","false"],["D ","false"],["O ","false"],["K ","false"],["C ","false"],["F ","false"],["I ","false"],["H ","false"],["G ","false"],["L ","false"],["E ","false"],["A ","false"]],"answer":["D","M","N","O"],"correct":1,"scaffold":"none","question":"contain+duration","scenario":"axis","graph":"linear","condition":0,"session":"4","experiment":"reverse","subject":"VZJRM","internal_node_id":"0.0-9.0-4.0","time_elapsed":884720,"trial_index":27,"trial_type":"html","url":"../views/src/external/stimulus.html","rt":32958},{"block":"linear_testing","helps":0,"clicked":[["answer","clicked"],["M ","false"],["B ","false"],["J ","false"],["N ","false"],["D ","false"],["O ","false"],["K ","false"],["C ","false"],["F ","false"],["I ","false"],["H ","false"],["G ","false"],["L ","false"],["E ","false"],["A ","false"]],"answer":["F","M","O"],"correct":1,"scaffold":"none","question":"during","scenario":"axis","graph":"linear","condition":0,"session":"4","experiment":"reverse","subject":"VZJRM","internal_node_id":"0.0-9.0-7.0","time_elapsed":902568,"trial_index":28,"trial_type":"html","url":"../views/src/external/stimulus.html","rt":16597},{"block":"linear_testing","helps":0,"clicked":[["answer","clicked"],["M ","false"],["B ","false"],["J ","false"],["N ","false"],["D ","false"],["O ","false"],["K ","false"],["C ","false"],["F ","false"],["I ","false"],["H ","false"],["G ","false"],["L ","false"],["E ","false"],["A ","false"]],"answer":["G"],"correct":1,"scaffold":"none","question":"starts+finishes","scenario":"axis","graph":"linear","condition":0,"session":"4","experiment":"reverse","subject":"VZJRM","internal_node_id":"0.0-9.0-9.0","time_elapsed":917360,"trial_index":29,"trial_type":"html","url":"../views/src/external/stimulus.html","rt":13542},{"block":"linear_testing","helps":0,"clicked":[["answer","clicked"],["M ","false"],["B ","false"],["J ","false"],["N ","false"],["D ","false"],["O ","false"],["K ","false"],["C ","false"],["F ","false"],["I ","false"],["H ","false"],["G ","false"],["L ","false"],["E ","false"],["A ","false"]],"answer":["9"],"correct":1,"scaffold":"none","question":"start+duration","scenario":"axis","graph":"linear","condition":0,"session":"4","experiment":"reverse","subject":"VZJRM","internal_node_id":"0.0-9.0-0.0","time_elapsed":947331,"trial_index":30,"trial_type":"html","url":"../views/src/external/stimulus.html","rt":28717},{"block":"linear_testing","helps":0,"clicked":[["answer","clicked"],["M ","false"],["B ","false"],["J ","false"],["N ","false"],["D ","false"],["O ","false"],["K ","false"],["C ","false"],["F ","false"],["I ","false"],["H ","false"],["G ","false"],["L ","false"],["E ","false"],["A ","false"]],"answer":["A"],"correct":1,"scaffold":"none","question":"during+overlap","scenario":"axis","graph":"linear","condition":0,"session":"4","experiment":"reverse","subject":"VZJRM","internal_node_id":"0.0-9.0-3.0","time_elapsed":971007,"trial_index":31,"trial_type":"html","url":"../views/src/external/stimulus.html","rt":22409},{"block":"linear_testing","helps":0,"clicked":[["answer","clicked"],["M ","false"],["B ","false"],["J ","false"],["N ","false"],["D ","false"],["O ","false"],["K ","false"],["C ","false"],["F ","false"],["I ","false"],["H ","false"],["G ","false"],["L ","false"],["E ","false"],["A ","false"]],"answer":["A","B","C","E","F","J"],"correct":0,"scaffold":"none","question":"overlap+overlap","scenario":"axis","graph":"linear","condition":0,"session":"4","experiment":"reverse","subject":"VZJRM","internal_node_id":"0.0-9.0-2.0","time_elapsed":1001445,"trial_index":32,"trial_type":"html","url":"../views/src/external/stimulus.html","rt":29186},{"block":"linear_testing","helps":0,"clicked":[["answer","clicked"],["M ","false"],["B ","false"],["J ","false"],["N ","false"],["D ","false"],["O ","false"],["K ","false"],["C ","false"],["F ","false"],["I ","false"],["H ","false"],["G ","false"],["L ","false"],["E ","false"],["A ","false"]],"answer":["G","O"],"correct":1,"scaffold":"none","question":"finishes","scenario":"axis","graph":"linear","condition":0,"session":"4","experiment":"reverse","subject":"VZJRM","internal_node_id":"0.0-9.0-6.0","time_elapsed":1013006,"trial_index":33,"trial_type":"html","url":"../views/src/external/stimulus.html","rt":10309},{"block":"linear_testing","helps":0,"clicked":[["answer","clicked"],["M ","false"],["B ","false"],["J ","false"],["N ","false"],["D ","false"],["O ","false"],["K ","false"],["C ","false"],["F ","false"],["I ","false"],["H ","false"],["G ","false"],["L ","false"],["E ","false"],["A ","false"]],"answer":["G"],"correct":1,"scaffold":"none","question":"meets","scenario":"axis","graph":"linear","condition":0,"session":"4","experiment":"reverse","subject":"VZJRM","internal_node_id":"0.0-9.0-8.0","time_elapsed":1057960,"trial_index":34,"trial_type":"html","url":"../views/src/external/stimulus.html","rt":43702},{"block":"linear_testing","helps":0,"clicked":[["answer","clicked"],["M ","false"],["B ","false"],["J ","false"],["N ","false"],["D ","false"],["O ","false"],["K ","false"],["C ","false"],["F ","false"],["I ","false"],["H ","false"],["G ","false"],["L ","false"],["E ","false"],["A ","false"]],"answer":["F","M","O"],"correct":0,"scaffold":"none","question":"before+overlap","scenario":"axis","graph":"linear","condition":0,"session":"4","experiment":"reverse","subject":"VZJRM","internal_node_id":"0.0-9.0-1.0","time_elapsed":1082568,"trial_index":35,"trial_type":"html","url":"../views/src/external/stimulus.html","rt":23354},{"condition":0,"session":"4","experiment":"reverse","subject":"VZJRM","internal_node_id":"0.0-10.0","time_elapsed":1098277,"trial_index":36,"trial_type":"single-stim","block":"scenario-draw","key_press":13,"stimulus":"img/jones.png","rt":14705},{"condition":0,"session":"4","experiment":"reverse","subject":"VZJRM","internal_node_id":"0.0-11.0","time_elapsed":1185322,"trial_index":37,"trial_type":"html","block":"instructions_drawing","url":"../views/src/external/instructions_draw.html","rt":85949},{"block":"drawingTest","clicked":[["answer","clicked"]],"answer":["C1"],"correct":1,"scaffold":"none","question":"duration","scenario":"jones","graph":"none","condition":0,"session":"4","experiment":"reverse","subject":"VZJRM","internal_node_id":"0.0-12.0","time_elapsed":1650481,"trial_index":38,"trial_type":"html","url":"../views/src/external/stimulus.html","rt":463820},{"block":"drawingTest","clicked":[["answer","clicked"]],"answer":["Chris","3-4pm"],"correct":1,"scaffold":"none","question":"overlap","scenario":"jones","graph":"none","condition":0,"session":"4","experiment":"reverse","subject":"VZJRM","internal_node_id":"0.0-13.0","time_elapsed":1695157,"trial_index":39,"trial_type":"html","url":"../views/src/external/stimulus.html","rt":43338},{"condition":0,"session":"4","experiment":"reverse","subject":"VZJRM","internal_node_id":"0.0-14.0","time_elapsed":1705404,"trial_index":40,"trial_type":"survey-text","block":"demo-1","responses":"{\"Q0\":\"19\",\"Q1\":\"Taiwan\"}","rt":9235},{"condition":0,"session":"4","experiment":"reverse","subject":"VZJRM","internal_node_id":"0.0-15.0","time_elapsed":1725900,"trial_index":41,"trial_type":"survey-multi-choice","block":"demo-2","responses":"{\"Q0\":\"Mandarin or Cantonese\",\"Q1\":\"First\",\"Q2\":\"Biomedical \u0026 Health Sciences\",\"Q3\":\"Female\",\"Q4\":\"the first one (linear\"}","rt":19483},{"condition":0,"session":"4","experiment":"reverse","subject":"VZJRM","internal_node_id":"0.0-16.0","time_elapsed":1778083,"trial_index":42,"trial_type":"html","block":"debrief","url":"../views/src/external/debrief.html","rt":50997}],"__v":0}
{"_id":{"$oid":"58c46ec68dfa930004a80831"},"data":[{"condition":3,"session":"lima","experiment":"experiment","subject":"XJH0T","internal_node_id":"0.0-0.0","time_elapsed":146713,"trial_index":0,"trial_type":"single-stim","block":"phone","key_press":13,"stimulus":"img/phone.png","rt":146706},{"condition":3,"session":"lima","experiment":"experiment","subject":"XJH0T","internal_node_id":"0.0-1.0","time_elapsed":152524,"trial_index":1,"trial_type":"html","block":"consent","url":"../views/src/external/consent.html","rt":4638},{"condition":3,"session":"lima","experiment":"experiment","subject":"XJH0T","internal_node_id":"0.0-2.0","time_elapsed":163170,"trial_index":2,"trial_type":"survey-text","block":"codes","responses":"{\"Q0\":\"LIMA\",\"Q1\":\"3\"}","rt":9638},{"condition":3,"session":"lima","experiment":"experiment","subject":"XJH0T","internal_node_id":"0.0-3.0","time_elapsed":170250,"trial_index":3,"trial_type":"html","block":"instructions_lab","url":"../views/src/external/instructions_lab.html","rt":5997},{"condition":3,"session":"lima","experiment":"experiment","subject":"XJH0T","internal_node_id":"0.0-4.0","time_elapsed":179380,"trial_index":4,"trial_type":"single-stim","block":"scenario-one","key_press":13,"stimulus":"img/axis.png","rt":8128},{"block":"linear_scaffolded","helps":0,"clicked":[["answer","clicked"],["M ","false"],["B ","false"],["J ","false"],["N ","false"],["D ","false"],["O ","false"],["K ","false"],["C ","false"],["F ","false"],["I ","false"],["H ","false"],["G ","false"],["L ","false"],["E ","false"],["A ","false"]],"answer":["H","O"],"correct":1,"scaffold":"show-static","question":"start","scenario":"axis","graph":"linear","condition":3,"session":"lima","experiment":"experiment","subject":"XJH0T","internal_node_id":"0.0-5.0-0.0","time_elapsed":201317,"trial_index":5,"trial_type":"html","url":"../views/src/external/stimulus.html","rt":20674},{"block":"linear_scaffolded","helps":0,"clicked":[["answer","clicked"],["M ","false"],["B ","false"],["J ","false"],["N ","false"],["D ","false"],["O ","false"],["K ","false"],["C ","false"],["F ","false"],["I ","false"],["H ","false"],["G ","false"],["L ","false"],["E ","false"],["A ","false"]],"answer":["4"],"correct":1,"scaffold":"show-static","question":"end","scenario":"axis","graph":"linear","condition":3,"session":"lima","experiment":"experiment","subject":"XJH0T","internal_node_id":"0.0-5.0-1.0","time_elapsed":210757,"trial_index":6,"trial_type":"html","url":"../views/src/external/stimulus.html","rt":8190},{"block":"linear_scaffolded","helps":0,"clicked":[["answer","clicked"],["M ","false"],["B ","false"],["J ","false"],["N ","false"],["D ","false"],["O ","false"],["K ","false"],["C ","false"],["F ","false"],["I ","false"],["H ","false"],["G ","false"],["L ","false"],["E ","false"],["A ","false"]],"answer":["A","E","G","I","L"],"correct":0,"scaffold":"show-static","question":"duration","scenario":"axis","graph":"linear","condition":3,"session":"lima","experiment":"experiment","subject":"XJH0T","internal_node_id":"0.0-5.0-2.0","time_elapsed":264166,"trial_index":7,"trial_type":"html","url":"../views/src/external/stimulus.html","rt":52151},{"block":"linear_scaffolded","helps":0,"clicked":[["answer","clicked"],["M ","false"],["B ","false"],["J ","false"],["N ","false"],["D ","false"],["O ","false"],["K ","false"],["C ","false"],["F ","false"],["I ","false"],["H ","false"],["G ","false"],["L ","false"],["E ","false"],["A ","false"]],"answer":["3"],"correct":0,"scaffold":"show-static","question":"midpoint","scenario":"axis","graph":"linear","condition":3,"session":"lima","experiment":"experiment","subject":"XJH0T","internal_node_id":"0.0-5.0-3.0","time_elapsed":316656,"trial_index":8,"trial_type":"html","url":"../views/src/external/stimulus.html","rt":51244},{"block":"linear_scaffolded","helps":0,"clicked":[["answer","clicked"],["M ","false"],["B ","false"],["J ","false"],["N ","false"],["D ","false"],["O ","false"],["K ","false"],["C ","false"],["F ","false"],["I ","false"],["H ","false"],["G ","false"],["L ","false"],["E ","false"],["A ","false"]],"answer":["7"],"correct":1,"scaffold":"show-static","question":"start+overlap","scenario":"axis","graph":"linear","condition":3,"session":"lima","experiment":"experiment","subject":"XJH0T","internal_node_id":"0.0-5.0-4.0","time_elapsed":335227,"trial_index":9,"trial_type":"html","url":"../views/src/external/stimulus.html","rt":17321},{"block":"linear_testing","helps":0,"clicked":[["answer","clicked"],["M ","false"],["B ","false"],["J ","false"],["N ","false"],["D ","false"],["O ","false"],["K ","false"],["C ","false"],["F ","false"],["I ","false"],["H ","false"],["G ","false"],["L ","false"],["E ","false"],["A ","false"]],"answer":["G"],"correct":1,"scaffold":"none","question":"meets","scenario":"axis","graph":"linear","condition":3,"session":"lima","experiment":"experiment","subject":"XJH0T","internal_node_id":"0.0-6.0-8.0","time_elapsed":354914,"trial_index":10,"trial_type":"html","url":"../views/src/external/stimulus.html","rt":18443},{"block":"linear_testing","helps":0,"clicked":[["answer","clicked"],["M ","false"],["B ","false"],["J ","false"],["N ","false"],["D ","false"],["O ","false"],["K ","false"],["C ","false"],["F ","false"],["I ","false"],["H ","false"],["G ","false"],["L ","false"],["E ","false"],["A ","false"]],"answer":["G"],"correct":1,"scaffold":"none","question":"starts+finishes","scenario":"axis","graph":"linear","condition":3,"session":"lima","experiment":"experiment","subject":"XJH0T","internal_node_id":"0.0-6.0-9.0","time_elapsed":370387,"trial_index":11,"trial_type":"html","url":"../views/src/external/stimulus.html","rt":14227},{"block":"linear_testing","helps":0,"clicked":[["answer","clicked"],["M ","false"],["B ","false"],["J ","false"],["N ","false"],["D ","false"],["O ","false"],["K ","false"],["C ","false"],["F ","false"],["I ","false"],["H ","false"],["G ","false"],["L ","false"],["E ","false"],["A ","false"]],"answer":["9"],"correct":1,"scaffold":"none","question":"start+duration","scenario":"axis","graph":"linear","condition":3,"session":"lima","experiment":"experiment","subject":"XJH0T","internal_node_id":"0.0-6.0-0.0","time_elapsed":421069,"trial_index":12,"trial_type":"html","url":"../views/src/external/stimulus.html","rt":49440},{"block":"linear_testing","helps":0,"clicked":[["answer","clicked"],["M ","false"],["B ","false"],["J ","false"],["N ","false"],["D ","false"],["O ","false"],["K ","false"],["C ","false"],["F ","false"],["I ","false"],["H ","false"],["G ","false"],["L ","false"],["E ","false"],["A ","false"]],"answer":["6"],"correct":1,"scaffold":"none","question":"starts","scenario":"axis","graph":"linear","condition":3,"session":"lima","experiment":"experiment","subject":"XJH0T","internal_node_id":"0.0-6.0-5.0","time_elapsed":442029,"trial_index":13,"trial_type":"html","url":"../views/src/external/stimulus.html","rt":19704},{"block":"linear_testing","helps":0,"clicked":[["answer","clicked"],["M ","false"],["B ","false"],["J ","false"],["N ","false"],["D ","false"],["O ","false"],["K ","false"],["C ","false"],["F ","false"],["I ","false"],["H ","false"],["G ","false"],["L ","false"],["E ","false"],["A ","false"]],"answer":["A","B","C","E","F","J"],"correct":0,"scaffold":"none","question":"overlap+overlap","scenario":"axis","graph":"linear","condition":3,"session":"lima","experiment":"experiment","subject":"XJH0T","internal_node_id":"0.0-6.0-2.0","time_elapsed":476625,"trial_index":14,"trial_type":"html","url":"../views/src/external/stimulus.html","rt":33342},{"block":"linear_testing","helps":0,"clicked":[["answer","clicked"],["M ","false"],["B ","false"],["J ","false"],["N ","false"],["D ","false"],["O ","false"],["K ","false"],["C ","false"],["F ","false"],["I ","false"],["H ","false"],["G ","false"],["L ","false"],["E ","false"],["A ","false"]],"answer":["F","G","M","O"],"correct":1,"scaffold":"none","question":"before+overlap","scenario":"axis","graph":"linear","condition":3,"session":"lima","experiment":"experiment","subject":"XJH0T","internal_node_id":"0.0-6.0-1.0","time_elapsed":510269,"trial_index":15,"trial_type":"html","url":"../views/src/external/stimulus.html","rt":32396},{"block":"linear_testing","helps":0,"clicked":[["answer","clicked"],["M ","false"],["B ","false"],["J ","false"],["N ","false"],["D ","false"],["O ","false"],["K ","false"],["C ","false"],["F ","false"],["I ","false"],["H ","false"],["G ","false"],["L ","false"],["E ","false"],["A ","false"]],"answer":["A"],"correct":1,"scaffold":"none","question":"during+overlap","scenario":"axis","graph":"linear","condition":3,"session":"lima","experiment":"experiment","subject":"XJH0T","internal_node_id":"0.0-6.0-3.0","time_elapsed":542987,"trial_index":16,"trial_type":"html","url":"../views/src/external/stimulus.html","rt":31474},{"block":"linear_testing","helps":0,"clicked":[["answer","clicked"],["M ","false"],["B ","false"],["J ","false"],["N ","false"],["D ","false"],["O ","false"],["K ","false"],["C ","false"],["F ","false"],["I ","false"],["H ","false"],["G ","false"],["L ","false"],["E ","false"],["A ","false"]],"answer":["D","M","N","O"],"correct":1,"scaffold":"none","question":"contain+duration","scenario":"axis","graph":"linear","condition":3,"session":"lima","experiment":"experiment","subject":"XJH0T","internal_node_id":"0.0-6.0-4.0","time_elapsed":568575,"trial_index":17,"trial_type":"html","url":"../views/src/external/stimulus.html","rt":24340},{"block":"linear_testing","helps":0,"clicked":[["answer","clicked"],["M ","false"],["B ","false"],["J ","false"],["N ","false"],["D ","false"],["O ","false"],["K ","false"],["C ","false"],["F ","false"],["I ","false"],["H ","false"],["G ","false"],["L ","false"],["E ","false"],["A ","false"]],"answer":["F","M","O"],"correct":1,"scaffold":"none","question":"during","scenario":"axis","graph":"linear","condition":3,"session":"lima","experiment":"experiment","subject":"XJH0T","internal_node_id":"0.0-6.0-7.0","time_elapsed":586216,"trial_index":18,"trial_type":"html","url":"../views/src/external/stimulus.html","rt":16383},{"block":"linear_testing","helps":0,"clicked":[["answer","clicked"],["M ","false"],["B ","false"],["J ","false"],["N ","false"],["D ","false"],["O ","false"],["K ","false"],["C ","false"],["F ","false"],["I ","false"],["H ","false"],["G ","false"],["L ","false"],["E ","false"],["A ","false"]],"answer":["G","O"],"correct":1,"scaffold":"none","question":"finishes","scenario":"axis","graph":"linear","condition":3,"session":"lima","experiment":"experiment","subject":"XJH0T","internal_node_id":"0.0-6.0-6.0","time_elapsed":598677,"trial_index":19,"trial_type":"html","url":"../views/src/external/stimulus.html","rt":11204},{"condition":3,"session":"lima","experiment":"experiment","subject":"XJH0T","internal_node_id":"0.0-7.0","time_elapsed":605113,"trial_index":20,"trial_type":"single-stim","block":"scenario-two","key_press":13,"stimulus":"img/longmire.png","rt":5430},{"block":"triangular_scaffolded","helps":0,"clicked":[["answer","clicked"],["A ","false"],["M ","false"],["D ","false"],["N ","false"],["B ","false"],["F ","false"],["H ","false"],["G ","false"],["O ","false"],["C ","false"],["J ","false"],["I ","false"],["E ","false"],["L ","false"],["K ","false"]],"answer":["D"],"correct":0,"scaffold":"show-static","question":"start","scenario":"longmire","graph":"triangular","condition":3,"session":"lima","experiment":"experiment","subject":"XJH0T","internal_node_id":"0.0-8.0-0.0","time_elapsed":656837,"trial_index":21,"trial_type":"html","url":"../views/src/external/stimulus.html","rt":50461},{"block":"triangular_scaffolded","helps":0,"clicked":[["answer","clicked"],["A ","false"],["M ","false"],["D ","false"],["N ","false"],["B ","false"],["F ","false"],["H ","false"],["G ","false"],["O ","false"],["C ","false"],["J ","false"],["I ","false"],["E ","false"],["L ","false"],["K ","false"]],"answer":["H","J","K","L","M","N","O"],"correct":1,"scaffold":"show-static","question":"end","scenario":"longmire","graph":"triangular","condition":3,"session":"lima","experiment":"experiment","subject":"XJH0T","internal_node_id":"0.0-8.0-1.0","time_elapsed":719572,"trial_index":22,"trial_type":"html","url":"../views/src/external/stimulus.html","rt":61488},{"block":"triangular_scaffolded","helps":0,"clicked":[["answer","clicked"],["A ","false"],["M ","false"],["D ","false"],["N ","false"],["B ","false"],["F ","false"],["H ","false"],["G ","false"],["O ","false"],["C ","false"],["J ","false"],["I ","false"],["E ","false"],["L ","false"],["K ","false"]],"answer":["G","O"],"correct":1,"scaffold":"show-static","question":"duration","scenario":"longmire","graph":"triangular","condition":3,"session":"lima","experiment":"experiment","subject":"XJH0T","internal_node_id":"0.0-8.0-2.0","time_elapsed":747558,"trial_index":23,"trial_type":"html","url":"../views/src/external/stimulus.html","rt":26578},{"block":"triangular_scaffolded","helps":0,"clicked":[["answer","clicked"],["A ","false"],["M ","false"],["D ","false"],["N ","false"],["B ","false"],["F ","false"],["H ","false"],["G ","false"],["O ","false"],["C ","false"],["J ","false"],["I ","false"],["E ","false"],["L ","false"],["K ","false"]],"answer":["1"],"correct":1,"scaffold":"show-static","question":"midpoint","scenario":"longmire","graph":"triangular","condition":3,"session":"lima","experiment":"experiment","subject":"XJH0T","internal_node_id":"0.0-8.0-3.0","time_elapsed":760754,"trial_index":24,"trial_type":"html","url":"../views/src/external/stimulus.html","rt":11930},{"block":"triangular_scaffolded","helps":0,"clicked":[["answer","clicked"],["A ","false"],["M ","false"],["D ","false"],["N ","false"],["B ","false"],["F ","false"],["H ","false"],["G ","false"],["O ","false"],["C ","false"],["J ","false"],["I ","false"],["E ","false"],["L ","false"],["K ","false"]],"answer":["A"],"correct":1,"scaffold":"show-static","question":"start+overlap","scenario":"longmire","graph":"triangular","condition":3,"session":"lima","experiment":"experiment","subject":"XJH0T","internal_node_id":"0.0-8.0-4.0","time_elapsed":779466,"trial_index":25,"trial_type":"html","url":"../views/src/external/stimulus.html","rt":17467},{"block":"triangular_testing","helps":0,"answer":["G","O"],"clicked":[["answer","clicked"],["A ","false"],["M ","false"],["D ","false"],["N ","false"],["B ","false"],["F ","false"],["H ","false"],["G ","false"],["O ","false"],["C ","false"],["J ","false"],["I ","false"],["E ","false"],["L ","false"],["K ","false"]],"correct":1,"scaffold":"none","question":"contain+duration","scenario":"longmire","graph":"triangular","condition":3,"session":"lima","experiment":"experiment","subject":"XJH0T","internal_node_id":"0.0-9.0-4.0","time_elapsed":794882,"trial_index":26,"trial_type":"html","url":"../views/src/external/stimulus.html","rt":14165},{"block":"triangular_testing","helps":0,"answer":["A","B","C","D","F","I"],"clicked":[["answer","clicked"],["A ","false"],["M ","false"],["D ","false"],["N ","false"],["B ","false"],["F ","false"],["H ","false"],["G ","false"],["O ","false"],["C ","false"],["J ","false"],["I ","false"],["E ","false"],["L ","false"],["K ","false"]],"correct":1,"scaffold":"none","question":"before+overlap","scenario":"longmire","graph":"triangular","condition":3,"session":"lima","experiment":"experiment","subject":"XJH0T","internal_node_id":"0.0-9.0-1.0","time_elapsed":837445,"trial_index":27,"trial_type":"html","url":"../views/src/external/stimulus.html","rt":41310},{"block":"triangular_testing","helps":0,"answer":["4","5"],"clicked":[["answer","clicked"],["A ","false"],["M ","false"],["D ","false"],["N ","false"],["B ","false"],["F ","false"],["H ","false"],["G ","false"],["O ","false"],["C ","false"],["J ","false"],["I ","false"],["E ","false"],["L ","false"],["K ","false"]],"correct":1,"scaffold":"none","question":"finishes","scenario":"longmire","graph":"triangular","condition":3,"session":"lima","experiment":"experiment","subject":"XJH0T","internal_node_id":"0.0-9.0-6.0","time_elapsed":865574,"trial_index":28,"trial_type":"html","url":"../views/src/external/stimulus.html","rt":26859},{"block":"triangular_testing","helps":0,"answer":["6","8"],"clicked":[["answer","clicked"],["A ","false"],["M ","false"],["D ","false"],["N ","false"],["B ","false"],["F ","false"],["H ","false"],["G ","false"],["O ","false"],["C ","false"],["J ","false"],["I ","false"],["E ","false"],["L ","false"],["K ","false"]],"correct":1,"scaffold":"none","question":"starts","scenario":"longmire","graph":"triangular","condition":3,"session":"lima","experiment":"experiment","subject":"XJH0T","internal_node_id":"0.0-9.0-5.0","time_elapsed":888266,"trial_index":29,"trial_type":"html","url":"../views/src/external/stimulus.html","rt":21446},{"block":"triangular_testing","helps":0,"answer":["A","M"],"clicked":[["answer","clicked"],["A ","false"],["M ","false"],["D ","false"],["N ","false"],["B ","false"],["F ","false"],["H ","false"],["G ","false"],["O ","false"],["C ","false"],["J ","false"],["I ","false"],["E ","false"],["L ","false"],["K ","false"]],"correct":0,"scaffold":"none","question":"overlap+overlap","scenario":"longmire","graph":"triangular","condition":3,"session":"lima","experiment":"experiment","subject":"XJH0T","internal_node_id":"0.0-9.0-2.0","time_elapsed":913859,"trial_index":30,"trial_type":"html","url":"../views/src/external/stimulus.html","rt":24347},{"block":"triangular_testing","helps":0,"answer":["A","B","D","F"],"clicked":[["answer","clicked"],["A ","false"],["M ","false"],["D ","false"],["N ","false"],["B ","false"],["F ","false"],["H ","false"],["G ","false"],["O ","false"],["C ","false"],["J ","false"],["I ","false"],["E ","false"],["L ","false"],["K ","false"]],"correct":1,"scaffold":"none","question":"start+duration","scenario":"longmire","graph":"triangular","condition":3,"session":"lima","experiment":"experiment","subject":"XJH0T","internal_node_id":"0.0-9.0-0.0","time_elapsed":944119,"trial_index":31,"trial_type":"html","url":"../views/src/external/stimulus.html","rt":29012},{"block":"triangular_testing","helps":0,"answer":["O"],"clicked":[["answer","clicked"],["A ","false"],["M ","false"],["D ","false"],["N ","false"],["B ","false"],["F ","false"],["H ","false"],["G ","false"],["O ","false"],["C ","false"],["J ","false"],["I ","false"],["E ","false"],["L ","false"],["K ","false"]],"correct":1,"scaffold":"none","question":"meets","scenario":"longmire","graph":"triangular","condition":3,"session":"lima","experiment":"experiment","subject":"XJH0T","internal_node_id":"0.0-9.0-8.0","time_elapsed":959599,"trial_index":32,"trial_type":"html","url":"../views/src/external/stimulus.html","rt":14234},{"block":"triangular_testing","helps":0,"answer":["B","D","F","G"],"clicked":[["answer","clicked"],["A ","false"],["M ","false"],["D ","false"],["N ","false"],["B ","false"],["F ","false"],["H ","false"],["G ","false"],["O ","false"],["C ","false"],["J ","false"],["I ","false"],["E ","false"],["L ","false"],["K ","false"]],"correct":0,"scaffold":"none","question":"during","scenario":"longmire","graph":"triangular","condition":3,"session":"lima","experiment":"experiment","subject":"XJH0T","internal_node_id":"0.0-9.0-7.0","time_elapsed":995645,"trial_index":33,"trial_type":"html","url":"../views/src/external/stimulus.html","rt":34799},{"block":"triangular_testing","helps":0,"answer":["C"],"clicked":[["answer","clicked"],["A ","false"],["M ","false"],["D ","false"],["N ","false"],["B ","false"],["F ","false"],["H ","false"],["G ","false"],["O ","false"],["C ","false"],["J ","false"],["I ","false"],["E ","false"],["L ","false"],["K ","false"]],"correct":1,"scaffold":"none","question":"starts+finishes","scenario":"longmire","graph":"triangular","condition":3,"session":"lima","experiment":"experiment","subject":"XJH0T","internal_node_id":"0.0-9.0-9.0","time_elapsed":1014084,"trial_index":34,"trial_type":"html","url":"../views/src/external/stimulus.html","rt":17192},{"block":"triangular_testing","helps":0,"answer":["K","L"],"clicked":[["answer","clicked"],["A ","false"],["M ","false"],["D ","false"],["N ","false"],["B ","false"],["F ","false"],["H ","false"],["G ","false"],["O ","false"],["C ","false"],["J ","false"],["I ","false"],["E ","false"],["L ","false"],["K ","false"]],"correct":1,"scaffold":"none","question":"during+overlap","scenario":"longmire","graph":"triangular","condition":3,"session":"lima","experiment":"experiment","subject":"XJH0T","internal_node_id":"0.0-9.0-3.0","time_elapsed":1050574,"trial_index":35,"trial_type":"html","url":"../views/src/external/stimulus.html","rt":35234},{"condition":3,"session":"lima","experiment":"experiment","subject":"XJH0T","internal_node_id":"0.0-10.0","time_elapsed":1057940,"trial_index":36,"trial_type":"single-stim","block":"scenario-draw","key_press":13,"stimulus":"img/jones.png","rt":6361},{"condition":3,"session":"lima","experiment":"experiment","subject":"XJH0T","internal_node_id":"0.0-11.0","time_elapsed":1651722,"trial_index":37,"trial_type":"html","block":"instructions_drawing","url":"../views/src/external/instructions_draw.html","rt":592696},{"block":"drawingTest","clicked":[["answer","clicked"]],"answer":["C1"],"correct":1,"scaffold":"none","question":"duration","scenario":"jones","graph":"none","condition":3,"session":"lima","experiment":"experiment","subject":"XJH0T","internal_node_id":"0.0-12.0","time_elapsed":1717621,"trial_index":38,"trial_type":"html","url":"../views/src/external/stimulus.html","rt":64569},{"block":"drawingTest","clicked":[["answer","clicked"]],"answer":["Chris","3-4pm"],"correct":1,"scaffold":"none","question":"overlap","scenario":"jones","graph":"none","condition":3,"session":"lima","experiment":"experiment","subject":"XJH0T","internal_node_id":"0.0-13.0","time_elapsed":1749092,"trial_index":39,"trial_type":"html","url":"../views/src/external/stimulus.html","rt":30139},{"condition":3,"session":"lima","experiment":"experiment","subject":"XJH0T","internal_node_id":"0.0-14.0","time_elapsed":1757254,"trial_index":40,"trial_type":"survey-text","block":"demo-1","responses":"{\"Q0\":\"20\",\"Q1\":\"United States\"}","rt":7153},{"condition":3,"session":"lima","experiment":"experiment","subject":"XJH0T","internal_node_id":"0.0-15.0","time_elapsed":1776374,"trial_index":41,"trial_type":"survey-multi-choice","block":"demo-2","responses":"{\"Q0\":\"English\",\"Q1\":\"Second\",\"Q2\":\"Social Sciences (incl. CogSci)\",\"Q3\":\"Female\",\"Q4\":\"the first one (linear\"}","rt":18106},{"condition":3,"session":"lima","experiment":"experiment","subject":"XJH0T","internal_node_id":"0.0-16.0","time_elapsed":1801278,"trial_index":42,"trial_type":"html","block":"debrief","url":"../views/src/external/debrief.html","rt":23822}],"__v":0}
