{"_id":{"$oid":"58c482588dfa930004a8084a"},"data":[{"condition":0,"session":"0","experiment":"experiment","subject":"5HJKF","internal_node_id":"0.0-0.0","time_elapsed":198896,"trial_index":0,"trial_type":"single-stim","block":"phone","key_press":13,"stimulus":"img/phone.png","rt":198892},{"condition":0,"session":"0","experiment":"experiment","subject":"5HJKF","internal_node_id":"0.0-1.0","time_elapsed":225205,"trial_index":1,"trial_type":"html","block":"consent","url":"../views/src/external/consent.html","rt":25033},{"condition":0,"session":"0","experiment":"experiment","subject":"5HJKF","internal_node_id":"0.0-2.0","time_elapsed":235340,"trial_index":2,"trial_type":"survey-text","block":"codes","responses":"{\"Q0\":\"0\",\"Q1\":\"MIKE\"}","rt":9121},{"condition":0,"session":"0","experiment":"experiment","subject":"5HJKF","internal_node_id":"0.0-3.0","time_elapsed":261869,"trial_index":3,"trial_type":"html","block":"instructions_lab","url":"../views/src/external/instructions_lab.html","rt":25361},{"condition":0,"session":"0","experiment":"experiment","subject":"5HJKF","internal_node_id":"0.0-4.0","time_elapsed":275343,"trial_index":4,"trial_type":"single-stim","block":"scenario-one","key_press":13,"stimulus":"img/axis.png","rt":12472},{"block":"linear_scaffolded","helps":0,"clicked":[["answer","clicked"],["M ","false"],["B ","false"],["J ","false"],["N ","false"],["D ","false"],["O ","false"],["K ","false"],["C ","false"],["F ","false"],["I ","false"],["H ","false"],["G ","false"],["L ","false"],["E ","false"],["A ","false"]],"answer":["H","O"],"correct":1,"scaffold":"none","question":"start","scenario":"axis","graph":"linear","condition":0,"session":"0","experiment":"experiment","subject":"5HJKF","internal_node_id":"0.0-5.0-0.0","time_elapsed":291750,"trial_index":5,"trial_type":"html","url":"../views/src/external/stimulus.html","rt":14996},{"block":"linear_scaffolded","helps":0,"clicked":[["answer","clicked"],["M ","false"],["B ","false"],["J ","false"],["N ","false"],["D ","false"],["O ","false"],["K ","false"],["C ","false"],["F ","false"],["I ","false"],["H ","false"],["G ","false"],["L ","false"],["E ","false"],["A ","false"]],"answer":["4"],"correct":1,"scaffold":"none","question":"end","scenario":"axis","graph":"linear","condition":0,"session":"0","experiment":"experiment","subject":"5HJKF","internal_node_id":"0.0-5.0-1.0","time_elapsed":303092,"trial_index":6,"trial_type":"html","url":"../views/src/external/stimulus.html","rt":10087},{"block":"linear_scaffolded","helps":0,"clicked":[["answer","clicked"],["M ","false"],["B ","false"],["J ","false"],["N ","false"],["D ","false"],["O ","false"],["K ","false"],["C ","false"],["F ","false"],["I ","false"],["H ","false"],["G ","false"],["L ","false"],["E ","false"],["A ","false"]],"answer":["A","C","E","F","H","I","K","L"],"correct":0,"scaffold":"none","question":"duration","scenario":"axis","graph":"linear","condition":0,"session":"0","experiment":"experiment","subject":"5HJKF","internal_node_id":"0.0-5.0-2.0","time_elapsed":346136,"trial_index":7,"trial_type":"html","url":"../views/src/external/stimulus.html","rt":41790},{"block":"linear_scaffolded","helps":0,"clicked":[["answer","clicked"],["M ","false"],["B ","false"],["J ","false"],["N ","false"],["D ","false"],["O ","false"],["K ","false"],["C ","false"],["F ","false"],["I ","false"],["H ","false"],["G ","false"],["L ","false"],["E ","false"],["A ","false"]],"answer":["8"],"correct":1,"scaffold":"none","question":"midpoint","scenario":"axis","graph":"linear","condition":0,"session":"0","experiment":"experiment","subject":"5HJKF","internal_node_id":"0.0-5.0-3.0","time_elapsed":364081,"trial_index":8,"trial_type":"html","url":"../views/src/external/stimulus.html","rt":16685},{"block":"linear_scaffolded","helps":0,"clicked":[["answer","clicked"],["M ","false"],["B ","false"],["J ","false"],["N ","false"],["D ","false"],["O ","false"],["K ","false"],["C ","false"],["F ","false"],["I ","false"],["H ","false"],["G ","false"],["L ","false"],["E ","false"],["A ","false"]],"answer":["10"],"correct":0,"scaffold":"none","question":"start+overlap","scenario":"axis","graph":"linear","condition":0,"session":"0","experiment":"experiment","subject":"5HJKF","internal_node_id":"0.0-5.0-4.0","time_elapsed":378644,"trial_index":9,"trial_type":"html","url":"../views/src/external/stimulus.html","rt":13293},{"block":"linear_testing","helps":0,"clicked":[["answer","clicked"],["M ","false"],["B ","false"],["J ","false"],["N ","false"],["D ","false"],["O ","false"],["K ","false"],["C ","false"],["F ","false"],["I ","false"],["H ","false"],["G ","false"],["L ","false"],["E ","false"],["A ","false"]],"answer":["C","F"],"correct":0,"scaffold":"none","question":"overlap+overlap","scenario":"axis","graph":"linear","condition":0,"session":"0","experiment":"experiment","subject":"5HJKF","internal_node_id":"0.0-6.0-2.0","time_elapsed":388569,"trial_index":10,"trial_type":"html","url":"../views/src/external/stimulus.html","rt":8669},{"block":"linear_testing","helps":0,"clicked":[["answer","clicked"],["M ","false"],["B ","false"],["J ","false"],["N ","false"],["D ","false"],["O ","false"],["K ","false"],["C ","false"],["F ","false"],["I ","false"],["H ","false"],["G ","false"],["L ","false"],["E ","false"],["A ","false"]],"answer":["9"],"correct":1,"scaffold":"none","question":"start+duration","scenario":"axis","graph":"linear","condition":0,"session":"0","experiment":"experiment","subject":"5HJKF","internal_node_id":"0.0-6.0-0.0","time_elapsed":424432,"trial_index":11,"trial_type":"html","url":"../views/src/external/stimulus.html","rt":34601},{"block":"linear_testing","helps":0,"clicked":[["answer","clicked"],["M ","false"],["B ","false"],["J ","false"],["N ","false"],["D ","false"],["O ","false"],["K ","false"],["C ","false"],["F ","false"],["I ","false"],["H ","false"],["G ","false"],["L ","false"],["E ","false"],["A ","false"]],"answer":["G","O"],"correct":1,"scaffold":"none","question":"finishes","scenario":"axis","graph":"linear","condition":0,"session":"0","experiment":"experiment","subject":"5HJKF","internal_node_id":"0.0-6.0-6.0","time_elapsed":439736,"trial_index":12,"trial_type":"html","url":"../views/src/external/stimulus.html","rt":14053},{"block":"linear_testing","helps":0,"clicked":[["answer","clicked"],["M ","false"],["B ","false"],["J ","false"],["N ","false"],["D ","false"],["O ","false"],["K ","false"],["C ","false"],["F ","false"],["I ","false"],["H ","false"],["G ","false"],["L ","false"],["E ","false"],["A ","false"]],"answer":["G","H","L","O"],"correct":0,"scaffold":"none","question":"before+overlap","scenario":"axis","graph":"linear","condition":0,"session":"0","experiment":"experiment","subject":"5HJKF","internal_node_id":"0.0-6.0-1.0","time_elapsed":466721,"trial_index":13,"trial_type":"html","url":"../views/src/external/stimulus.html","rt":25723},{"block":"linear_testing","helps":0,"clicked":[["answer","clicked"],["M ","false"],["B ","false"],["J ","false"],["N ","false"],["D ","false"],["O ","false"],["K ","false"],["C ","false"],["F ","false"],["I ","false"],["H ","false"],["G ","false"],["L ","false"],["E ","false"],["A ","false"]],"answer":["D","N","O"],"correct":0,"scaffold":"none","question":"contain+duration","scenario":"axis","graph":"linear","condition":0,"session":"0","experiment":"experiment","subject":"5HJKF","internal_node_id":"0.0-6.0-4.0","time_elapsed":497249,"trial_index":14,"trial_type":"html","url":"../views/src/external/stimulus.html","rt":29270},{"block":"linear_testing","helps":0,"clicked":[["answer","clicked"],["M ","false"],["B ","false"],["J ","false"],["N ","false"],["D ","false"],["O ","false"],["K ","false"],["C ","false"],["F ","false"],["I ","false"],["H ","false"],["G ","false"],["L ","false"],["E ","false"],["A ","false"]],"answer":["F","M","O"],"correct":1,"scaffold":"none","question":"during","scenario":"axis","graph":"linear","condition":0,"session":"0","experiment":"experiment","subject":"5HJKF","internal_node_id":"0.0-6.0-7.0","time_elapsed":522369,"trial_index":15,"trial_type":"html","url":"../views/src/external/stimulus.html","rt":23863},{"block":"linear_testing","helps":0,"clicked":[["answer","clicked"],["M ","false"],["B ","false"],["J ","false"],["N ","false"],["D ","false"],["O ","false"],["K ","false"],["C ","false"],["F ","false"],["I ","false"],["H ","false"],["G ","false"],["L ","false"],["E ","false"],["A ","false"]],"answer":["D","J","M","N","O"],"correct":0,"scaffold":"none","question":"meets","scenario":"axis","graph":"linear","condition":0,"session":"0","experiment":"experiment","subject":"5HJKF","internal_node_id":"0.0-6.0-8.0","time_elapsed":581699,"trial_index":16,"trial_type":"html","url":"../views/src/external/stimulus.html","rt":58067},{"block":"linear_testing","helps":0,"clicked":[["answer","clicked"],["M ","false"],["B ","false"],["J ","false"],["N ","false"],["D ","false"],["O ","false"],["K ","false"],["C ","false"],["F ","false"],["I ","false"],["H ","false"],["G ","false"],["L ","false"],["E ","false"],["A ","false"]],"answer":["6"],"correct":1,"scaffold":"none","question":"starts","scenario":"axis","graph":"linear","condition":0,"session":"0","experiment":"experiment","subject":"5HJKF","internal_node_id":"0.0-6.0-5.0","time_elapsed":612544,"trial_index":17,"trial_type":"html","url":"../views/src/external/stimulus.html","rt":29587},{"block":"linear_testing","helps":0,"clicked":[["answer","clicked"],["M ","false"],["B ","false"],["J ","false"],["N ","false"],["D ","false"],["O ","false"],["K ","false"],["C ","false"],["F ","false"],["I ","false"],["H ","false"],["G ","false"],["L ","false"],["E ","false"],["A ","false"]],"answer":["G"],"correct":1,"scaffold":"none","question":"starts+finishes","scenario":"axis","graph":"linear","condition":0,"session":"0","experiment":"experiment","subject":"5HJKF","internal_node_id":"0.0-6.0-9.0","time_elapsed":626953,"trial_index":18,"trial_type":"html","url":"../views/src/external/stimulus.html","rt":12976},{"block":"linear_testing","helps":0,"clicked":[["answer","clicked"],["M ","false"],["B ","false"],["J ","false"],["N ","false"],["D ","false"],["O ","false"],["K ","false"],["C ","false"],["F ","false"],["I ","false"],["H ","false"],["G ","false"],["L ","false"],["E ","false"],["A ","false"]],"answer":["G"],"correct":0,"scaffold":"none","question":"during+overlap","scenario":"axis","graph":"linear","condition":0,"session":"0","experiment":"experiment","subject":"5HJKF","internal_node_id":"0.0-6.0-3.0","time_elapsed":653770,"trial_index":19,"trial_type":"html","url":"../views/src/external/stimulus.html","rt":25561},{"condition":0,"session":"0","experiment":"experiment","subject":"5HJKF","internal_node_id":"0.0-7.0","time_elapsed":663137,"trial_index":20,"trial_type":"single-stim","block":"scenario-two","key_press":13,"stimulus":"img/longmire.png","rt":8361},{"block":"triangular_scaffolded","helps":0,"clicked":[["answer","clicked"],["A ","false"],["M ","false"],["D ","false"],["N ","false"],["B ","false"],["F ","false"],["H ","false"],["G ","false"],["O ","false"],["C ","false"],["J ","false"],["I ","false"],["E ","false"],["L ","false"],["K ","false"]],"answer":[],"correct":0,"scaffold":"none","question":"start","scenario":"longmire","graph":"triangular","condition":0,"session":"0","experiment":"experiment","subject":"5HJKF","internal_node_id":"0.0-8.0-0.0","time_elapsed":685359,"trial_index":21,"trial_type":"html","url":"../views/src/external/stimulus.html","rt":20958},{"block":"triangular_scaffolded","helps":0,"clicked":[["answer","clicked"],["A ","false"],["M ","false"],["D ","false"],["N ","false"],["B ","false"],["F ","false"],["H ","false"],["G ","false"],["O ","false"],["C ","false"],["J ","false"],["I ","false"],["E ","false"],["L ","false"],["K ","false"]],"answer":["M","N"],"correct":0,"scaffold":"none","question":"end","scenario":"longmire","graph":"triangular","condition":0,"session":"0","experiment":"experiment","subject":"5HJKF","internal_node_id":"0.0-8.0-1.0","time_elapsed":695888,"trial_index":22,"trial_type":"html","url":"../views/src/external/stimulus.html","rt":9276},{"block":"triangular_scaffolded","helps":0,"clicked":[["answer","clicked"],["A ","false"],["M ","false"],["D ","false"],["N ","false"],["B ","false"],["F ","false"],["H ","false"],["G ","false"],["O ","false"],["C ","false"],["J ","false"],["I ","false"],["E ","false"],["L ","false"],["K ","false"]],"answer":["G","O"],"correct":1,"scaffold":"none","question":"duration","scenario":"longmire","graph":"triangular","condition":0,"session":"0","experiment":"experiment","subject":"5HJKF","internal_node_id":"0.0-8.0-2.0","time_elapsed":709257,"trial_index":23,"trial_type":"html","url":"../views/src/external/stimulus.html","rt":12108},{"block":"triangular_scaffolded","helps":0,"clicked":[["answer","clicked"],["A ","false"],["M ","false"],["D ","false"],["N ","false"],["B ","false"],["F ","false"],["H ","false"],["G ","false"],["O ","false"],["C ","false"],["J ","false"],["I ","false"],["E ","false"],["L ","false"],["K ","false"]],"answer":["1"],"correct":1,"scaffold":"none","question":"midpoint","scenario":"longmire","graph":"triangular","condition":0,"session":"0","experiment":"experiment","subject":"5HJKF","internal_node_id":"0.0-8.0-3.0","time_elapsed":737954,"trial_index":24,"trial_type":"html","url":"../views/src/external/stimulus.html","rt":27427},{"block":"triangular_scaffolded","helps":0,"clicked":[["answer","clicked"],["A ","false"],["M ","false"],["D ","false"],["N ","false"],["B ","false"],["F ","false"],["H ","false"],["G ","false"],["O ","false"],["C ","false"],["J ","false"],["I ","false"],["E ","false"],["L ","false"],["K ","false"]],"answer":["G","L"],"correct":0,"scaffold":"none","question":"start+overlap","scenario":"longmire","graph":"triangular","condition":0,"session":"0","experiment":"experiment","subject":"5HJKF","internal_node_id":"0.0-8.0-4.0","time_elapsed":745137,"trial_index":25,"trial_type":"html","url":"../views/src/external/stimulus.html","rt":5921},{"block":"triangular_testing","helps":0,"answer":["A","B","D","F"],"clicked":[["answer","clicked"],["A ","false"],["M ","false"],["D ","false"],["N ","false"],["B ","false"],["F ","false"],["H ","false"],["G ","false"],["O ","false"],["C ","false"],["J ","false"],["I ","false"],["E ","false"],["L ","false"],["K ","false"]],"correct":1,"scaffold":"none","question":"start+duration","scenario":"longmire","graph":"triangular","condition":0,"session":"0","experiment":"experiment","subject":"5HJKF","internal_node_id":"0.0-9.0-0.0","time_elapsed":769437,"trial_index":26,"trial_type":"html","url":"../views/src/external/stimulus.html","rt":23031},{"block":"triangular_testing","helps":0,"answer":["I"],"clicked":[["answer","clicked"],["A ","false"],["M ","false"],["D ","false"],["N ","false"],["B ","false"],["F ","false"],["H ","false"],["G ","false"],["O ","false"],["C ","false"],["J ","false"],["I ","false"],["E ","false"],["L ","false"],["K ","false"]],"correct":0,"scaffold":"none","question":"during","scenario":"longmire","graph":"triangular","condition":0,"session":"0","experiment":"experiment","subject":"5HJKF","internal_node_id":"0.0-9.0-7.0","time_elapsed":789756,"trial_index":27,"trial_type":"html","url":"../views/src/external/stimulus.html","rt":19067},{"block":"triangular_testing","helps":0,"answer":[],"clicked":[["answer","clicked"],["A ","false"],["M ","false"],["D ","false"],["N ","false"],["B ","false"],["F ","false"],["H ","false"],["G ","false"],["O ","false"],["C ","false"],["J ","false"],["I ","false"],["E ","false"],["L ","false"],["K ","false"]],"correct":0,"scaffold":"none","question":"starts+finishes","scenario":"longmire","graph":"triangular","condition":0,"session":"0","experiment":"experiment","subject":"5HJKF","internal_node_id":"0.0-9.0-9.0","time_elapsed":819689,"trial_index":28,"trial_type":"html","url":"../views/src/external/stimulus.html","rt":28681},{"block":"triangular_testing","helps":0,"answer":["G"],"clicked":[["answer","clicked"],["A ","false"],["M ","false"],["D ","false"],["N ","false"],["B ","false"],["F ","false"],["H ","false"],["G ","false"],["O ","false"],["C ","false"],["J ","false"],["I ","false"],["E ","false"],["L ","false"],["K ","false"]],"correct":0,"scaffold":"none","question":"overlap+overlap","scenario":"longmire","graph":"triangular","condition":0,"session":"0","experiment":"experiment","subject":"5HJKF","internal_node_id":"0.0-9.0-2.0","time_elapsed":825837,"trial_index":29,"trial_type":"html","url":"../views/src/external/stimulus.html","rt":4895},{"block":"triangular_testing","helps":0,"answer":["4"],"clicked":[["answer","clicked"],["A ","false"],["M ","false"],["D ","false"],["N ","false"],["B ","false"],["F ","false"],["H ","false"],["G ","false"],["O ","false"],["C ","false"],["J ","false"],["I ","false"],["E ","false"],["L ","false"],["K ","false"]],"correct":0,"scaffold":"none","question":"starts","scenario":"longmire","graph":"triangular","condition":0,"session":"0","experiment":"experiment","subject":"5HJKF","internal_node_id":"0.0-9.0-5.0","time_elapsed":828617,"trial_index":30,"trial_type":"html","url":"../views/src/external/stimulus.html","rt":1516},{"block":"triangular_testing","helps":0,"answer":["D"],"clicked":[["answer","clicked"],["A ","false"],["M ","false"],["D ","false"],["N ","false"],["B ","false"],["F ","false"],["H ","false"],["G ","false"],["O ","false"],["C ","false"],["J ","false"],["I ","false"],["E ","false"],["L ","false"],["K ","false"]],"correct":0,"scaffold":"none","question":"before+overlap","scenario":"longmire","graph":"triangular","condition":0,"session":"0","experiment":"experiment","subject":"5HJKF","internal_node_id":"0.0-9.0-1.0","time_elapsed":832035,"trial_index":31,"trial_type":"html","url":"../views/src/external/stimulus.html","rt":2158},{"block":"triangular_testing","helps":0,"answer":["H","M"],"clicked":[["answer","clicked"],["A ","false"],["M ","false"],["D ","false"],["N ","false"],["B ","false"],["F ","false"],["H ","false"],["G ","false"],["O ","false"],["C ","false"],["J ","true"],["I ","false"],["E ","false"],["L ","false"],["K ","false"]],"correct":0,"scaffold":"none","question":"contain+duration","scenario":"longmire","graph":"triangular","condition":0,"session":"0","experiment":"experiment","subject":"5HJKF","internal_node_id":"0.0-9.0-4.0","time_elapsed":864452,"trial_index":32,"trial_type":"html","url":"../views/src/external/stimulus.html","rt":31156},{"block":"triangular_testing","helps":0,"answer":["B","F"],"clicked":[["answer","clicked"],["A ","false"],["M ","false"],["D ","false"],["N ","false"],["B ","false"],["F ","false"],["H ","false"],["G ","false"],["O ","false"],["C ","false"],["J ","false"],["I ","false"],["E ","false"],["L ","false"],["K ","false"]],"correct":0,"scaffold":"none","question":"during+overlap","scenario":"longmire","graph":"triangular","condition":0,"session":"0","experiment":"experiment","subject":"5HJKF","internal_node_id":"0.0-9.0-3.0","time_elapsed":914899,"trial_index":33,"trial_type":"html","url":"../views/src/external/stimulus.html","rt":49188},{"block":"triangular_testing","helps":0,"answer":[],"clicked":[["answer","clicked"],["A ","false"],["M ","false"],["D ","true"],["N ","false"],["B ","true"],["F ","false"],["H ","false"],["G ","false"],["O ","false"],["C ","false"],["J ","false"],["I ","false"],["E ","false"],["L ","false"],["K ","false"]],"correct":0,"scaffold":"none","question":"finishes","scenario":"longmire","graph":"triangular","condition":0,"session":"0","experiment":"experiment","subject":"5HJKF","internal_node_id":"0.0-9.0-6.0","time_elapsed":992089,"trial_index":34,"trial_type":"html","url":"../views/src/external/stimulus.html","rt":75933},{"block":"triangular_testing","helps":0,"answer":["H","M"],"clicked":[["answer","clicked"],["A ","false"],["M ","false"],["D ","false"],["N ","false"],["B ","false"],["F ","false"],["H ","false"],["G ","false"],["O ","false"],["C ","false"],["J ","false"],["I ","false"],["E ","false"],["L ","false"],["K ","false"]],"correct":0,"scaffold":"none","question":"meets","scenario":"longmire","graph":"triangular","condition":0,"session":"0","experiment":"experiment","subject":"5HJKF","internal_node_id":"0.0-9.0-8.0","time_elapsed":996053,"trial_index":35,"trial_type":"html","url":"../views/src/external/stimulus.html","rt":2539},{"condition":0,"session":"0","experiment":"experiment","subject":"5HJKF","internal_node_id":"0.0-10.0","time_elapsed":1001249,"trial_index":36,"trial_type":"single-stim","block":"scenario-draw","key_press":13,"stimulus":"img/jones.png","rt":4190},{"condition":0,"session":"0","experiment":"experiment","subject":"5HJKF","internal_node_id":"0.0-11.0","time_elapsed":1376481,"trial_index":37,"trial_type":"html","block":"instructions_drawing","url":"../views/src/external/instructions_draw.html","rt":374080},{"block":"drawingTest","clicked":[["answer","clicked"]],"answer":["C1"],"correct":1,"scaffold":"none","question":"duration","scenario":"jones","graph":"none","condition":0,"session":"0","experiment":"experiment","subject":"5HJKF","internal_node_id":"0.0-12.0","time_elapsed":1460629,"trial_index":38,"trial_type":"html","url":"../views/src/external/stimulus.html","rt":82734},{"block":"drawingTest","clicked":[["answer","clicked"]],"answer":["Chris","3-4pm"],"correct":1,"scaffold":"none","question":"overlap","scenario":"jones","graph":"none","condition":0,"session":"0","experiment":"experiment","subject":"5HJKF","internal_node_id":"0.0-13.0","time_elapsed":1543444,"trial_index":39,"trial_type":"html","url":"../views/src/external/stimulus.html","rt":81490},{"condition":0,"session":"0","experiment":"experiment","subject":"5HJKF","internal_node_id":"0.0-14.0","time_elapsed":1554005,"trial_index":40,"trial_type":"survey-text","block":"demo-1","responses":"{\"Q0\":\"18\",\"Q1\":\"India\"}","rt":9553},{"condition":0,"session":"0","experiment":"experiment","subject":"5HJKF","internal_node_id":"0.0-15.0","time_elapsed":1569363,"trial_index":41,"trial_type":"survey-multi-choice","block":"demo-2","responses":"{\"Q0\":\"Other\",\"Q1\":\"Second\",\"Q2\":\"Social Sciences (incl. CogSci)\",\"Q3\":\"Male\",\"Q4\":\"the first one (linear\"}","rt":14341},{"condition":0,"session":"0","experiment":"experiment","subject":"5HJKF","internal_node_id":"0.0-16.0","time_elapsed":1583562,"trial_index":42,"trial_type":"html","block":"debrief","url":"../views/src/external/debrief.html","rt":12953}],"__v":0}
{"_id":{"$oid":"58c4828a8dfa930004a8084b"},"data":[{"condition":1,"session":"mike","experiment":"reverse","subject":"6Y878","internal_node_id":"0.0-0.0","time_elapsed":212563,"trial_index":0,"trial_type":"single-stim","block":"phone","key_press":13,"stimulus":"img/phone.png","rt":212560},{"condition":1,"session":"mike","experiment":"reverse","subject":"6Y878","internal_node_id":"0.0-1.0","time_elapsed":232263,"trial_index":1,"trial_type":"html","block":"consent","url":"../views/src/external/consent.html","rt":18397},{"condition":1,"session":"mike","experiment":"reverse","subject":"6Y878","internal_node_id":"0.0-2.0","time_elapsed":242287,"trial_index":2,"trial_type":"survey-text","block":"codes","responses":"{\"Q0\":\"MIKE\",\"Q1\":\"1\"}","rt":9011},{"condition":1,"session":"mike","experiment":"reverse","subject":"6Y878","internal_node_id":"0.0-3.0","time_elapsed":256664,"trial_index":3,"trial_type":"html","block":"instructions_lab","url":"../views/src/external/instructions_lab.html","rt":13201},{"condition":1,"session":"mike","experiment":"reverse","subject":"6Y878","internal_node_id":"0.0-4.0","time_elapsed":274698,"trial_index":4,"trial_type":"single-stim","block":"scenario-two","key_press":13,"stimulus":"img/axis.png","rt":17032},{"block":"triangular_scaffolded","helps":0,"clicked":[["answer","clicked"],["M ","false"],["B ","false"],["J ","false"],["N ","false"],["D ","false"],["O ","false"],["K ","false"],["C ","false"],["F ","false"],["I ","false"],["H ","false"],["G ","false"],["L ","false"],["E ","false"],["A ","false"]],"answer":["G"],"correct":0,"scaffold":"describe-what","question":"start","scenario":"axis","graph":"triangular","condition":1,"session":"mike","experiment":"reverse","subject":"6Y878","internal_node_id":"0.0-5.0-0.0","time_elapsed":299337,"trial_index":5,"trial_type":"html","url":"../views/src/external/stimulus.html","rt":23228},{"block":"triangular_scaffolded","helps":0,"clicked":[["answer","clicked"],["M ","false"],["B ","false"],["J ","false"],["N ","false"],["D ","false"],["O ","false"],["K ","false"],["C ","false"],["F ","false"],["I ","false"],["H ","false"],["G ","false"],["L ","false"],["E ","false"],["A ","false"]],"answer":["6"],"correct":0,"scaffold":"describe-what","question":"end","scenario":"axis","graph":"triangular","condition":1,"session":"mike","experiment":"reverse","subject":"6Y878","internal_node_id":"0.0-5.0-1.0","time_elapsed":381260,"trial_index":6,"trial_type":"html","url":"../views/src/external/stimulus.html","rt":80674},{"block":"triangular_scaffolded","helps":0,"clicked":[["answer","clicked"],["M ","false"],["B ","false"],["J ","false"],["N ","false"],["D ","false"],["O ","false"],["K ","false"],["C ","false"],["F ","false"],["I ","false"],["H ","false"],["G ","false"],["L ","false"],["E ","false"],["A ","false"]],"answer":["A","E","G","H","I","L"],"correct":0,"scaffold":"describe-what","question":"duration","scenario":"axis","graph":"triangular","condition":1,"session":"mike","experiment":"reverse","subject":"6Y878","internal_node_id":"0.0-5.0-2.0","time_elapsed":417085,"trial_index":7,"trial_type":"html","url":"../views/src/external/stimulus.html","rt":34468},{"block":"triangular_scaffolded","helps":0,"clicked":[["answer","clicked"],["M ","false"],["B ","false"],["J ","false"],["N ","false"],["D ","false"],["O ","false"],["K ","false"],["C ","false"],["F ","false"],["I ","false"],["H ","false"],["G ","false"],["L ","false"],["E ","false"],["A ","false"]],"answer":["9"],"correct":0,"scaffold":"describe-what","question":"midpoint","scenario":"axis","graph":"triangular","condition":1,"session":"mike","experiment":"reverse","subject":"6Y878","internal_node_id":"0.0-5.0-3.0","time_elapsed":454926,"trial_index":8,"trial_type":"html","url":"../views/src/external/stimulus.html","rt":36594},{"block":"triangular_scaffolded","helps":0,"clicked":[["answer","clicked"],["M ","false"],["B ","false"],["J ","false"],["N ","false"],["D ","false"],["O ","false"],["K ","false"],["C ","false"],["F ","false"],["I ","false"],["H ","false"],["G ","false"],["L ","false"],["E ","false"],["A ","false"]],"answer":["2"],"correct":0,"scaffold":"describe-what","question":"start+overlap","scenario":"axis","graph":"triangular","condition":1,"session":"mike","experiment":"reverse","subject":"6Y878","internal_node_id":"0.0-5.0-4.0","time_elapsed":481352,"trial_index":9,"trial_type":"html","url":"../views/src/external/stimulus.html","rt":25184},{"block":"triangular_testing","helps":0,"answer":["4"],"clicked":[["answer","clicked"],["M ","false"],["B ","false"],["J ","false"],["N ","false"],["D ","false"],["O ","false"],["K ","false"],["C ","false"],["F ","false"],["I ","false"],["H ","false"],["G ","false"],["L ","false"],["E ","false"],["A ","false"]],"correct":0,"scaffold":"none","question":"starts","scenario":"axis","graph":"triangular","condition":1,"session":"mike","experiment":"reverse","subject":"6Y878","internal_node_id":"0.0-6.0-5.0","time_elapsed":501608,"trial_index":10,"trial_type":"html","url":"../views/src/external/stimulus.html","rt":19012},{"block":"triangular_testing","helps":0,"answer":["O"],"clicked":[["answer","clicked"],["M ","false"],["B ","false"],["J ","false"],["N ","false"],["D ","false"],["O ","false"],["K ","false"],["C ","false"],["F ","false"],["I ","false"],["H ","false"],["G ","false"],["L ","false"],["E ","false"],["A ","false"]],"correct":0,"scaffold":"none","question":"during","scenario":"axis","graph":"triangular","condition":1,"session":"mike","experiment":"reverse","subject":"6Y878","internal_node_id":"0.0-6.0-7.0","time_elapsed":518356,"trial_index":11,"trial_type":"html","url":"../views/src/external/stimulus.html","rt":15498},{"block":"triangular_testing","helps":0,"answer":["3"],"clicked":[["answer","clicked"],["M ","false"],["B ","false"],["J ","false"],["N ","false"],["D ","false"],["O ","false"],["K ","false"],["C ","false"],["F ","false"],["I ","false"],["H ","false"],["G ","false"],["L ","false"],["E ","false"],["A ","false"]],"correct":0,"scaffold":"none","question":"start+duration","scenario":"axis","graph":"triangular","condition":1,"session":"mike","experiment":"reverse","subject":"6Y878","internal_node_id":"0.0-6.0-0.0","time_elapsed":546324,"trial_index":12,"trial_type":"html","url":"../views/src/external/stimulus.html","rt":26719},{"block":"triangular_testing","helps":0,"answer":["E"],"clicked":[["answer","clicked"],["M ","false"],["B ","false"],["J ","false"],["N ","false"],["D ","false"],["O ","false"],["K ","false"],["C ","false"],["F ","false"],["I ","false"],["H ","false"],["G ","false"],["L ","false"],["E ","false"],["A ","false"]],"correct":0,"scaffold":"none","question":"during+overlap","scenario":"axis","graph":"triangular","condition":1,"session":"mike","experiment":"reverse","subject":"6Y878","internal_node_id":"0.0-6.0-3.0","time_elapsed":591670,"trial_index":13,"trial_type":"html","url":"../views/src/external/stimulus.html","rt":44101},{"block":"triangular_testing","helps":0,"answer":["E"],"clicked":[["answer","clicked"],["M ","false"],["B ","false"],["J ","false"],["N ","false"],["D ","false"],["O ","false"],["K ","false"],["C ","false"],["F ","false"],["I ","false"],["H ","false"],["G ","false"],["L ","false"],["E ","false"],["A ","false"]],"correct":0,"scaffold":"none","question":"starts+finishes","scenario":"axis","graph":"triangular","condition":1,"session":"mike","experiment":"reverse","subject":"6Y878","internal_node_id":"0.0-6.0-9.0","time_elapsed":635596,"trial_index":14,"trial_type":"html","url":"../views/src/external/stimulus.html","rt":42675},{"block":"triangular_testing","helps":0,"answer":["E","L"],"clicked":[["answer","clicked"],["M ","false"],["B ","false"],["J ","false"],["N ","false"],["D ","false"],["O ","false"],["K ","false"],["C ","false"],["F ","false"],["I ","false"],["H ","false"],["G ","false"],["L ","false"],["E ","false"],["A ","false"]],"correct":0,"scaffold":"none","question":"meets","scenario":"axis","graph":"triangular","condition":1,"session":"mike","experiment":"reverse","subject":"6Y878","internal_node_id":"0.0-6.0-8.0","time_elapsed":736035,"trial_index":15,"trial_type":"html","url":"../views/src/external/stimulus.html","rt":99047},{"block":"triangular_testing","helps":0,"answer":["O"],"clicked":[["answer","clicked"],["M ","false"],["B ","false"],["J ","false"],["N ","false"],["D ","false"],["O ","false"],["K ","false"],["C ","false"],["F ","false"],["I ","false"],["H ","false"],["G ","false"],["L ","false"],["E ","false"],["A ","false"]],"correct":0,"scaffold":"none","question":"finishes","scenario":"axis","graph":"triangular","condition":1,"session":"mike","experiment":"reverse","subject":"6Y878","internal_node_id":"0.0-6.0-6.0","time_elapsed":770901,"trial_index":16,"trial_type":"html","url":"../views/src/external/stimulus.html","rt":33550},{"block":"triangular_testing","helps":0,"answer":["M","O"],"clicked":[["answer","clicked"],["M ","false"],["B ","false"],["J ","false"],["N ","false"],["D ","false"],["O ","false"],["K ","false"],["C ","false"],["F ","false"],["I ","false"],["H ","false"],["G ","false"],["L ","false"],["E ","false"],["A ","false"]],"correct":0,"scaffold":"none","question":"contain+duration","scenario":"axis","graph":"triangular","condition":1,"session":"mike","experiment":"reverse","subject":"6Y878","internal_node_id":"0.0-6.0-4.0","time_elapsed":809533,"trial_index":17,"trial_type":"html","url":"../views/src/external/stimulus.html","rt":37384},{"block":"triangular_testing","helps":0,"answer":["F"],"clicked":[["answer","clicked"],["M ","false"],["B ","false"],["J ","false"],["N ","false"],["D ","false"],["O ","false"],["K ","false"],["C ","false"],["F ","false"],["I ","false"],["H ","false"],["G ","false"],["L ","false"],["E ","false"],["A ","false"]],"correct":0,"scaffold":"none","question":"before+overlap","scenario":"axis","graph":"triangular","condition":1,"session":"mike","experiment":"reverse","subject":"6Y878","internal_node_id":"0.0-6.0-1.0","time_elapsed":830375,"trial_index":18,"trial_type":"html","url":"../views/src/external/stimulus.html","rt":19596},{"block":"triangular_testing","helps":0,"answer":[],"clicked":[["answer","clicked"],["M ","false"],["B ","false"],["J ","false"],["N ","false"],["D ","false"],["O ","false"],["K ","false"],["C ","false"],["F ","false"],["I ","false"],["H ","false"],["G ","false"],["L ","false"],["E ","false"],["A ","false"]],"correct":0,"scaffold":"none","question":"overlap+overlap","scenario":"axis","graph":"triangular","condition":1,"session":"mike","experiment":"reverse","subject":"6Y878","internal_node_id":"0.0-6.0-2.0","time_elapsed":839816,"trial_index":19,"trial_type":"html","url":"../views/src/external/stimulus.html","rt":8181},{"condition":1,"session":"mike","experiment":"reverse","subject":"6Y878","internal_node_id":"0.0-7.0","time_elapsed":859525,"trial_index":20,"trial_type":"single-stim","block":"scenario-one","key_press":13,"stimulus":"img/longmire.png","rt":18703},{"block":"linear_scaffolded","helps":0,"clicked":[["answer","clicked"],["A ","false"],["M ","false"],["D ","false"],["N ","false"],["B ","false"],["F ","false"],["H ","false"],["G ","false"],["O ","false"],["C ","false"],["J ","false"],["I ","false"],["E ","false"],["L ","false"],["K ","false"]],"answer":["C","L"],"correct":0,"scaffold":"describe-what","question":"start","scenario":"longmire","graph":"linear","condition":1,"session":"mike","experiment":"reverse","subject":"6Y878","internal_node_id":"0.0-8.0-0.0","time_elapsed":895315,"trial_index":21,"trial_type":"html","url":"../views/src/external/stimulus.html","rt":34492},{"block":"linear_scaffolded","helps":0,"clicked":[["answer","clicked"],["A ","false"],["M ","false"],["D ","false"],["N ","false"],["B ","false"],["F ","false"],["H ","false"],["G ","false"],["O ","false"],["C ","false"],["J ","false"],["I ","false"],["E ","false"],["L ","false"],["K ","false"]],"answer":["H","J","K","L","M","N","O"],"correct":1,"scaffold":"describe-what","question":"end","scenario":"longmire","graph":"linear","condition":1,"session":"mike","experiment":"reverse","subject":"6Y878","internal_node_id":"0.0-8.0-1.0","time_elapsed":925531,"trial_index":22,"trial_type":"html","url":"../views/src/external/stimulus.html","rt":28962},{"block":"linear_scaffolded","helps":0,"clicked":[["answer","clicked"],["A ","false"],["M ","false"],["D ","false"],["N ","false"],["B ","false"],["F ","false"],["H ","false"],["G ","false"],["O ","false"],["C ","false"],["J ","false"],["I ","false"],["E ","false"],["L ","false"],["K ","false"]],"answer":["G","O"],"correct":1,"scaffold":"describe-what","question":"duration","scenario":"longmire","graph":"linear","condition":1,"session":"mike","experiment":"reverse","subject":"6Y878","internal_node_id":"0.0-8.0-2.0","time_elapsed":952509,"trial_index":23,"trial_type":"html","url":"../views/src/external/stimulus.html","rt":25726},{"block":"linear_scaffolded","helps":0,"clicked":[["answer","clicked"],["A ","false"],["M ","false"],["D ","false"],["N ","false"],["B ","false"],["F ","false"],["H ","false"],["G ","false"],["O ","false"],["C ","false"],["J ","false"],["I ","false"],["E ","false"],["L ","false"],["K ","false"]],"answer":["1"],"correct":1,"scaffold":"describe-what","question":"midpoint","scenario":"longmire","graph":"linear","condition":1,"session":"mike","experiment":"reverse","subject":"6Y878","internal_node_id":"0.0-8.0-3.0","time_elapsed":970858,"trial_index":24,"trial_type":"html","url":"../views/src/external/stimulus.html","rt":17094},{"block":"linear_scaffolded","helps":0,"clicked":[["answer","clicked"],["A ","false"],["M ","false"],["D ","false"],["N ","false"],["B ","false"],["F ","false"],["H ","false"],["G ","false"],["O ","false"],["C ","false"],["J ","false"],["I ","false"],["E ","false"],["L ","false"],["K ","false"]],"answer":["A"],"correct":1,"scaffold":"describe-what","question":"start+overlap","scenario":"longmire","graph":"linear","condition":1,"session":"mike","experiment":"reverse","subject":"6Y878","internal_node_id":"0.0-8.0-4.0","time_elapsed":982411,"trial_index":25,"trial_type":"html","url":"../views/src/external/stimulus.html","rt":10298},{"block":"linear_testing","helps":0,"clicked":[["answer","clicked"],["A ","false"],["M ","false"],["D ","false"],["N ","false"],["B ","false"],["F ","false"],["H ","false"],["G ","false"],["O ","false"],["C ","false"],["J ","false"],["I ","false"],["E ","false"],["L ","false"],["K ","false"]],"answer":["K"],"correct":0,"scaffold":"none","question":"during+overlap","scenario":"longmire","graph":"linear","condition":1,"session":"mike","experiment":"reverse","subject":"6Y878","internal_node_id":"0.0-9.0-3.0","time_elapsed":1004968,"trial_index":26,"trial_type":"html","url":"../views/src/external/stimulus.html","rt":21304},{"block":"linear_testing","helps":0,"clicked":[["answer","clicked"],["A ","false"],["M ","false"],["D ","false"],["N ","false"],["B ","false"],["F ","false"],["H ","false"],["G ","false"],["O ","false"],["C ","false"],["J ","false"],["I ","false"],["E ","false"],["L ","false"],["K ","false"]],"answer":["A","B","D","F"],"correct":1,"scaffold":"none","question":"start+duration","scenario":"longmire","graph":"linear","condition":1,"session":"mike","experiment":"reverse","subject":"6Y878","internal_node_id":"0.0-9.0-0.0","time_elapsed":1032330,"trial_index":27,"trial_type":"html","url":"../views/src/external/stimulus.html","rt":26105},{"block":"linear_testing","helps":0,"clicked":[["answer","clicked"],["A ","false"],["M ","false"],["D ","false"],["N ","false"],["B ","false"],["F ","false"],["H ","false"],["G ","false"],["O ","false"],["C ","false"],["J ","false"],["I ","false"],["E ","false"],["L ","false"],["K ","false"]],"answer":["C"],"correct":0,"scaffold":"none","question":"during","scenario":"longmire","graph":"linear","condition":1,"session":"mike","experiment":"reverse","subject":"6Y878","internal_node_id":"0.0-9.0-7.0","time_elapsed":1052207,"trial_index":28,"trial_type":"html","url":"../views/src/external/stimulus.html","rt":18612},{"block":"linear_testing","helps":0,"clicked":[["answer","clicked"],["A ","false"],["M ","false"],["D ","false"],["N ","false"],["B ","false"],["F ","false"],["H ","false"],["G ","false"],["O ","false"],["C ","false"],["J ","false"],["I ","false"],["E ","false"],["L ","false"],["K ","false"]],"answer":["C"],"correct":1,"scaffold":"none","question":"starts+finishes","scenario":"longmire","graph":"linear","condition":1,"session":"mike","experiment":"reverse","subject":"6Y878","internal_node_id":"0.0-9.0-9.0","time_elapsed":1065427,"trial_index":29,"trial_type":"html","url":"../views/src/external/stimulus.html","rt":11968},{"block":"linear_testing","helps":0,"clicked":[["answer","clicked"],["A ","false"],["M ","false"],["D ","false"],["N ","false"],["B ","false"],["F ","false"],["H ","false"],["G ","false"],["O ","false"],["C ","false"],["J ","false"],["I ","false"],["E ","false"],["L ","false"],["K ","false"]],"answer":["A","F"],"correct":0,"scaffold":"none","question":"before+overlap","scenario":"longmire","graph":"linear","condition":1,"session":"mike","experiment":"reverse","subject":"6Y878","internal_node_id":"0.0-9.0-1.0","time_elapsed":1082303,"trial_index":30,"trial_type":"html","url":"../views/src/external/stimulus.html","rt":15623},{"block":"linear_testing","helps":0,"clicked":[["answer","clicked"],["A ","false"],["M ","false"],["D ","false"],["N ","false"],["B ","false"],["F ","false"],["H ","false"],["G ","false"],["O ","false"],["C ","false"],["J ","false"],["I ","false"],["E ","false"],["L ","false"],["K ","false"]],"answer":["G","O"],"correct":1,"scaffold":"none","question":"contain+duration","scenario":"longmire","graph":"linear","condition":1,"session":"mike","experiment":"reverse","subject":"6Y878","internal_node_id":"0.0-9.0-4.0","time_elapsed":1102371,"trial_index":31,"trial_type":"html","url":"../views/src/external/stimulus.html","rt":18818},{"block":"linear_testing","helps":0,"clicked":[["answer","clicked"],["A ","false"],["M ","false"],["D ","false"],["N ","false"],["B ","false"],["F ","false"],["H ","false"],["G ","false"],["O ","false"],["C ","false"],["J ","false"],["I ","false"],["E ","false"],["L ","false"],["K ","false"]],"answer":["4"],"correct":0,"scaffold":"none","question":"finishes","scenario":"longmire","graph":"linear","condition":1,"session":"mike","experiment":"reverse","subject":"6Y878","internal_node_id":"0.0-9.0-6.0","time_elapsed":1114536,"trial_index":32,"trial_type":"html","url":"../views/src/external/stimulus.html","rt":10910},{"block":"linear_testing","helps":0,"clicked":[["answer","clicked"],["A ","false"],["M ","false"],["D ","false"],["N ","false"],["B ","false"],["F ","false"],["H ","false"],["G ","false"],["O ","false"],["C ","false"],["J ","false"],["I ","false"],["E ","false"],["L ","false"],["K ","false"]],"answer":["M","N"],"correct":0,"scaffold":"none","question":"overlap+overlap","scenario":"longmire","graph":"linear","condition":1,"session":"mike","experiment":"reverse","subject":"6Y878","internal_node_id":"0.0-9.0-2.0","time_elapsed":1129393,"trial_index":33,"trial_type":"html","url":"../views/src/external/stimulus.html","rt":13602},{"block":"linear_testing","helps":0,"clicked":[["answer","clicked"],["A ","false"],["M ","false"],["D ","false"],["N ","false"],["B ","false"],["F ","false"],["H ","false"],["G ","false"],["O ","false"],["C ","false"],["J ","false"],["I ","false"],["E ","false"],["L ","false"],["K ","false"]],"answer":["O"],"correct":1,"scaffold":"none","question":"meets","scenario":"longmire","graph":"linear","condition":1,"session":"mike","experiment":"reverse","subject":"6Y878","internal_node_id":"0.0-9.0-8.0","time_elapsed":1145180,"trial_index":34,"trial_type":"html","url":"../views/src/external/stimulus.html","rt":14529},{"block":"linear_testing","helps":0,"clicked":[["answer","clicked"],["A ","false"],["M ","false"],["D ","false"],["N ","false"],["B ","false"],["F ","false"],["H ","false"],["G ","false"],["O ","false"],["C ","false"],["J ","false"],["I ","false"],["E ","false"],["L ","false"],["K ","false"]],"answer":["8"],"correct":0,"scaffold":"none","question":"starts","scenario":"longmire","graph":"linear","condition":1,"session":"mike","experiment":"reverse","subject":"6Y878","internal_node_id":"0.0-9.0-5.0","time_elapsed":1156036,"trial_index":35,"trial_type":"html","url":"../views/src/external/stimulus.html","rt":9596},{"condition":1,"session":"mike","experiment":"reverse","subject":"6Y878","internal_node_id":"0.0-10.0","time_elapsed":1160177,"trial_index":36,"trial_type":"single-stim","block":"scenario-draw","key_press":13,"stimulus":"img/jones.png","rt":3135},{"condition":1,"session":"mike","experiment":"reverse","subject":"6Y878","internal_node_id":"0.0-11.0","time_elapsed":1223783,"trial_index":37,"trial_type":"html","block":"instructions_drawing","url":"../views/src/external/instructions_draw.html","rt":62459},{"block":"drawingTest","clicked":[["answer","clicked"]],"answer":["G3"],"correct":0,"scaffold":"none","question":"duration","scenario":"jones","graph":"none","condition":1,"session":"mike","experiment":"reverse","subject":"6Y878","internal_node_id":"0.0-12.0","time_elapsed":1554115,"trial_index":38,"trial_type":"html","url":"../views/src/external/stimulus.html","rt":328902},{"block":"drawingTest","clicked":[["answer","clicked"]],"answer":["Chris","3-4pm"],"correct":1,"scaffold":"none","question":"overlap","scenario":"jones","graph":"none","condition":1,"session":"mike","experiment":"reverse","subject":"6Y878","internal_node_id":"0.0-13.0","time_elapsed":1596543,"trial_index":39,"trial_type":"html","url":"../views/src/external/stimulus.html","rt":41084},{"condition":1,"session":"mike","experiment":"reverse","subject":"6Y878","internal_node_id":"0.0-14.0","time_elapsed":1608470,"trial_index":40,"trial_type":"survey-text","block":"demo-1","responses":"{\"Q0\":\"18\",\"Q1\":\"United States\"}","rt":10922},{"condition":1,"session":"mike","experiment":"reverse","subject":"6Y878","internal_node_id":"0.0-15.0","time_elapsed":1640273,"trial_index":41,"trial_type":"survey-multi-choice","block":"demo-2","responses":"{\"Q0\":\"English\",\"Q1\":\"First\",\"Q2\":\"Biomedical \u0026 Health Sciences\",\"Q3\":\"Female\",\"Q4\":\"the first one (linear\"}","rt":30786},{"condition":1,"session":"mike","experiment":"reverse","subject":"6Y878","internal_node_id":"0.0-16.0","time_elapsed":1647305,"trial_index":42,"trial_type":"html","block":"debrief","url":"../views/src/external/debrief.html","rt":5799}],"__v":0}
{"_id":{"$oid":"58c483ab8dfa930004a8084c"},"data":[{"condition":2,"session":"mike","experiment":"experiment","subject":"GP70L","internal_node_id":"0.0-0.0","time_elapsed":228070,"trial_index":0,"trial_type":"single-stim","block":"phone","key_press":13,"stimulus":"img/phone.png","rt":228062},{"condition":2,"session":"mike","experiment":"experiment","subject":"GP70L","internal_node_id":"0.0-1.0","time_elapsed":262943,"trial_index":1,"trial_type":"html","block":"consent","url":"../views/src/external/consent.html","rt":33683},{"condition":2,"session":"mike","experiment":"experiment","subject":"GP70L","internal_node_id":"0.0-2.0","time_elapsed":277148,"trial_index":2,"trial_type":"survey-text","block":"codes","responses":"{\"Q0\":\"MIKE\",\"Q1\":\"2\"}","rt":13196},{"condition":2,"session":"mike","experiment":"experiment","subject":"GP70L","internal_node_id":"0.0-3.0","time_elapsed":304645,"trial_index":3,"trial_type":"html","block":"instructions_lab","url":"../views/src/external/instructions_lab.html","rt":26404},{"condition":2,"session":"mike","experiment":"experiment","subject":"GP70L","internal_node_id":"0.0-4.0","time_elapsed":325971,"trial_index":4,"trial_type":"single-stim","block":"scenario-one","key_press":13,"stimulus":"img/axis.png","rt":20323},{"block":"linear_scaffolded","helps":0,"clicked":[["answer","clicked"],["M ","false"],["B ","false"],["J ","false"],["N ","false"],["D ","false"],["O ","false"],["K ","false"],["C ","false"],["F ","false"],["I ","false"],["H ","false"],["G ","false"],["L ","false"],["E ","false"],["A ","false"]],"answer":["H","O"],"correct":1,"scaffold":"describe-how","question":"start","scenario":"axis","graph":"linear","condition":2,"session":"mike","experiment":"experiment","subject":"GP70L","internal_node_id":"0.0-5.0-0.0","time_elapsed":356506,"trial_index":5,"trial_type":"html","url":"../views/src/external/stimulus.html","rt":29186},{"block":"linear_scaffolded","helps":0,"clicked":[["answer","clicked"],["M ","false"],["B ","false"],["J ","false"],["N ","false"],["D ","false"],["O ","false"],["K ","false"],["C ","false"],["F ","false"],["I ","false"],["H ","false"],["G ","false"],["L ","false"],["E ","false"],["A ","false"]],"answer":["4"],"correct":1,"scaffold":"describe-how","question":"end","scenario":"axis","graph":"linear","condition":2,"session":"mike","experiment":"experiment","subject":"GP70L","internal_node_id":"0.0-5.0-1.0","time_elapsed":366914,"trial_index":6,"trial_type":"html","url":"../views/src/external/stimulus.html","rt":9157},{"block":"linear_scaffolded","helps":0,"clicked":[["answer","clicked"],["M ","false"],["B ","false"],["J ","false"],["N ","false"],["D ","false"],["O ","false"],["K ","false"],["C ","false"],["F ","false"],["I ","false"],["H ","false"],["G ","false"],["L ","false"],["E ","false"],["A ","false"]],"answer":["A","E","G","H","I","L"],"correct":0,"scaffold":"describe-how","question":"duration","scenario":"axis","graph":"linear","condition":2,"session":"mike","experiment":"experiment","subject":"GP70L","internal_node_id":"0.0-5.0-2.0","time_elapsed":410099,"trial_index":7,"trial_type":"html","url":"../views/src/external/stimulus.html","rt":41943},{"block":"linear_scaffolded","helps":0,"clicked":[["answer","clicked"],["M ","false"],["B ","false"],["J ","false"],["N ","false"],["D ","false"],["O ","false"],["K ","false"],["C ","false"],["F ","false"],["I ","false"],["H ","false"],["G ","false"],["L ","false"],["E ","false"],["A ","false"]],"answer":["10"],"correct":0,"scaffold":"describe-how","question":"midpoint","scenario":"axis","graph":"linear","condition":2,"session":"mike","experiment":"experiment","subject":"GP70L","internal_node_id":"0.0-5.0-3.0","time_elapsed":442531,"trial_index":8,"trial_type":"html","url":"../views/src/external/stimulus.html","rt":31183},{"block":"linear_scaffolded","helps":0,"clicked":[["answer","clicked"],["M ","false"],["B ","false"],["J ","false"],["N ","false"],["D ","false"],["O ","false"],["K ","false"],["C ","false"],["F ","false"],["I ","false"],["H ","false"],["G ","false"],["L ","false"],["E ","false"],["A ","false"]],"answer":["7"],"correct":1,"scaffold":"describe-how","question":"start+overlap","scenario":"axis","graph":"linear","condition":2,"session":"mike","experiment":"experiment","subject":"GP70L","internal_node_id":"0.0-5.0-4.0","time_elapsed":463693,"trial_index":9,"trial_type":"html","url":"../views/src/external/stimulus.html","rt":19918},{"block":"linear_testing","helps":0,"clicked":[["answer","clicked"],["M ","false"],["B ","false"],["J ","false"],["N ","false"],["D ","false"],["O ","false"],["K ","false"],["C ","false"],["F ","false"],["I ","false"],["H ","false"],["G ","false"],["L ","false"],["E ","false"],["A ","false"]],"answer":["G"],"correct":1,"scaffold":"none","question":"meets","scenario":"axis","graph":"linear","condition":2,"session":"mike","experiment":"experiment","subject":"GP70L","internal_node_id":"0.0-6.0-8.0","time_elapsed":500384,"trial_index":10,"trial_type":"html","url":"../views/src/external/stimulus.html","rt":35444},{"block":"linear_testing","helps":0,"clicked":[["answer","clicked"],["M ","false"],["B ","false"],["J ","false"],["N ","false"],["D ","false"],["O ","false"],["K ","false"],["C ","false"],["F ","false"],["I ","false"],["H ","false"],["G ","false"],["L ","false"],["E ","false"],["A ","false"]],"answer":["F","M","O"],"correct":0,"scaffold":"none","question":"before+overlap","scenario":"axis","graph":"linear","condition":2,"session":"mike","experiment":"experiment","subject":"GP70L","internal_node_id":"0.0-6.0-1.0","time_elapsed":528633,"trial_index":11,"trial_type":"html","url":"../views/src/external/stimulus.html","rt":27001},{"block":"linear_testing","helps":0,"clicked":[["answer","clicked"],["M ","false"],["B ","false"],["J ","false"],["N ","false"],["D ","false"],["O ","false"],["K ","false"],["C ","false"],["F ","false"],["I ","false"],["H ","false"],["G ","false"],["L ","false"],["E ","false"],["A ","false"]],"answer":["G","O"],"correct":1,"scaffold":"none","question":"finishes","scenario":"axis","graph":"linear","condition":2,"session":"mike","experiment":"experiment","subject":"GP70L","internal_node_id":"0.0-6.0-6.0","time_elapsed":539693,"trial_index":12,"trial_type":"html","url":"../views/src/external/stimulus.html","rt":9812},{"block":"linear_testing","helps":0,"clicked":[["answer","clicked"],["M ","false"],["B ","false"],["J ","false"],["N ","false"],["D ","false"],["O ","false"],["K ","false"],["C ","false"],["F ","false"],["I ","false"],["H ","false"],["G ","false"],["L ","false"],["E ","false"],["A ","false"]],"answer":["A","B","C","E","F","J"],"correct":0,"scaffold":"none","question":"overlap+overlap","scenario":"axis","graph":"linear","condition":2,"session":"mike","experiment":"experiment","subject":"GP70L","internal_node_id":"0.0-6.0-2.0","time_elapsed":568075,"trial_index":13,"trial_type":"html","url":"../views/src/external/stimulus.html","rt":27134},{"block":"linear_testing","helps":0,"clicked":[["answer","clicked"],["M ","false"],["B ","false"],["J ","false"],["N ","false"],["D ","false"],["O ","false"],["K ","false"],["C ","false"],["F ","false"],["I ","false"],["H ","false"],["G ","false"],["L ","false"],["E ","false"],["A ","false"]],"answer":["9"],"correct":1,"scaffold":"none","question":"start+duration","scenario":"axis","graph":"linear","condition":2,"session":"mike","experiment":"experiment","subject":"GP70L","internal_node_id":"0.0-6.0-0.0","time_elapsed":595963,"trial_index":14,"trial_type":"html","url":"../views/src/external/stimulus.html","rt":26643},{"block":"linear_testing","helps":0,"clicked":[["answer","clicked"],["M ","false"],["B ","false"],["J ","false"],["N ","false"],["D ","false"],["O ","false"],["K ","false"],["C ","false"],["F ","false"],["I ","false"],["H ","false"],["G ","false"],["L ","false"],["E ","false"],["A ","false"]],"answer":["A"],"correct":1,"scaffold":"none","question":"during+overlap","scenario":"axis","graph":"linear","condition":2,"session":"mike","experiment":"experiment","subject":"GP70L","internal_node_id":"0.0-6.0-3.0","time_elapsed":616406,"trial_index":15,"trial_type":"html","url":"../views/src/external/stimulus.html","rt":19197},{"block":"linear_testing","helps":0,"clicked":[["answer","clicked"],["M ","false"],["B ","false"],["J ","false"],["N ","false"],["D ","false"],["O ","false"],["K ","false"],["C ","false"],["F ","false"],["I ","false"],["H ","false"],["G ","false"],["L ","false"],["E ","false"],["A ","false"]],"answer":["6"],"correct":1,"scaffold":"none","question":"starts","scenario":"axis","graph":"linear","condition":2,"session":"mike","experiment":"experiment","subject":"GP70L","internal_node_id":"0.0-6.0-5.0","time_elapsed":644241,"trial_index":16,"trial_type":"html","url":"../views/src/external/stimulus.html","rt":26594},{"block":"linear_testing","helps":0,"clicked":[["answer","clicked"],["M ","false"],["B ","false"],["J ","false"],["N ","false"],["D ","false"],["O ","false"],["K ","false"],["C ","false"],["F ","false"],["I ","false"],["H ","false"],["G ","false"],["L ","false"],["E ","false"],["A ","false"]],"answer":["G"],"correct":1,"scaffold":"none","question":"starts+finishes","scenario":"axis","graph":"linear","condition":2,"session":"mike","experiment":"experiment","subject":"GP70L","internal_node_id":"0.0-6.0-9.0","time_elapsed":663254,"trial_index":17,"trial_type":"html","url":"../views/src/external/stimulus.html","rt":17758},{"block":"linear_testing","helps":0,"clicked":[["answer","clicked"],["M ","false"],["B ","false"],["J ","false"],["N ","false"],["D ","false"],["O ","false"],["K ","false"],["C ","false"],["F ","false"],["I ","false"],["H ","false"],["G ","false"],["L ","false"],["E ","false"],["A ","false"]],"answer":["F","M","O"],"correct":1,"scaffold":"none","question":"during","scenario":"axis","graph":"linear","condition":2,"session":"mike","experiment":"experiment","subject":"GP70L","internal_node_id":"0.0-6.0-7.0","time_elapsed":687068,"trial_index":18,"trial_type":"html","url":"../views/src/external/stimulus.html","rt":22563},{"block":"linear_testing","helps":0,"clicked":[["answer","clicked"],["M ","false"],["B ","false"],["J ","false"],["N ","false"],["D ","false"],["O ","false"],["K ","false"],["C ","false"],["F ","false"],["I ","false"],["H ","false"],["G ","false"],["L ","false"],["E ","false"],["A ","false"]],"answer":["D","M","N","O"],"correct":1,"scaffold":"none","question":"contain+duration","scenario":"axis","graph":"linear","condition":2,"session":"mike","experiment":"experiment","subject":"GP70L","internal_node_id":"0.0-6.0-4.0","time_elapsed":720468,"trial_index":19,"trial_type":"html","url":"../views/src/external/stimulus.html","rt":32145},{"condition":2,"session":"mike","experiment":"experiment","subject":"GP70L","internal_node_id":"0.0-7.0","time_elapsed":734105,"trial_index":20,"trial_type":"single-stim","block":"scenario-two","key_press":13,"stimulus":"img/longmire.png","rt":12630},{"block":"triangular_scaffolded","helps":0,"clicked":[["answer","clicked"],["A ","false"],["M ","false"],["D ","false"],["N ","false"],["B ","false"],["F ","false"],["H ","false"],["G ","false"],["O ","false"],["C ","false"],["J ","false"],["I ","false"],["E ","false"],["L ","false"],["K ","false"]],"answer":["D"],"correct":0,"scaffold":"describe-how","question":"start","scenario":"longmire","graph":"triangular","condition":2,"session":"mike","experiment":"experiment","subject":"GP70L","internal_node_id":"0.0-8.0-0.0","time_elapsed":840024,"trial_index":21,"trial_type":"html","url":"../views/src/external/stimulus.html","rt":104671},{"block":"triangular_scaffolded","helps":0,"clicked":[["answer","clicked"],["A ","false"],["M ","false"],["D ","false"],["N ","false"],["B ","false"],["F ","false"],["H ","false"],["G ","false"],["O ","false"],["C ","false"],["J ","false"],["I ","false"],["E ","false"],["L ","false"],["K ","false"]],"answer":["E","G"],"correct":0,"scaffold":"describe-how","question":"end","scenario":"longmire","graph":"triangular","condition":2,"session":"mike","experiment":"experiment","subject":"GP70L","internal_node_id":"0.0-8.0-1.0","time_elapsed":857432,"trial_index":22,"trial_type":"html","url":"../views/src/external/stimulus.html","rt":16062},{"block":"triangular_scaffolded","helps":0,"clicked":[["answer","clicked"],["A ","false"],["M ","false"],["D ","false"],["N ","false"],["B ","false"],["F ","false"],["H ","false"],["G ","false"],["O ","false"],["C ","false"],["J ","false"],["I ","false"],["E ","false"],["L ","false"],["K ","false"]],"answer":["G","O"],"correct":1,"scaffold":"describe-how","question":"duration","scenario":"longmire","graph":"triangular","condition":2,"session":"mike","experiment":"experiment","subject":"GP70L","internal_node_id":"0.0-8.0-2.0","time_elapsed":872887,"trial_index":23,"trial_type":"html","url":"../views/src/external/stimulus.html","rt":14200},{"block":"triangular_scaffolded","helps":0,"clicked":[["answer","clicked"],["A ","false"],["M ","false"],["D ","false"],["N ","false"],["B ","false"],["F ","false"],["H ","false"],["G ","false"],["O ","false"],["C ","false"],["J ","false"],["I ","false"],["E ","false"],["L ","false"],["K ","false"]],"answer":["1"],"correct":1,"scaffold":"describe-how","question":"midpoint","scenario":"longmire","graph":"triangular","condition":2,"session":"mike","experiment":"experiment","subject":"GP70L","internal_node_id":"0.0-8.0-3.0","time_elapsed":889495,"trial_index":24,"trial_type":"html","url":"../views/src/external/stimulus.html","rt":15355},{"block":"triangular_scaffolded","helps":0,"clicked":[["answer","clicked"],["A ","false"],["M ","false"],["D ","false"],["N ","false"],["B ","false"],["F ","false"],["H ","false"],["G ","false"],["O ","false"],["C ","false"],["J ","false"],["I ","false"],["E ","false"],["L ","false"],["K ","false"]],"answer":["A"],"correct":1,"scaffold":"describe-how","question":"start+overlap","scenario":"longmire","graph":"triangular","condition":2,"session":"mike","experiment":"experiment","subject":"GP70L","internal_node_id":"0.0-8.0-4.0","time_elapsed":907481,"trial_index":25,"trial_type":"html","url":"../views/src/external/stimulus.html","rt":16734},{"block":"triangular_testing","helps":0,"answer":["O"],"clicked":[["answer","clicked"],["A ","false"],["M ","false"],["D ","false"],["N ","false"],["B ","false"],["F ","false"],["H ","false"],["G ","false"],["O ","false"],["C ","false"],["J ","false"],["I ","false"],["E ","false"],["L ","false"],["K ","false"]],"correct":1,"scaffold":"none","question":"meets","scenario":"longmire","graph":"triangular","condition":2,"session":"mike","experiment":"experiment","subject":"GP70L","internal_node_id":"0.0-9.0-8.0","time_elapsed":921521,"trial_index":26,"trial_type":"html","url":"../views/src/external/stimulus.html","rt":12789},{"block":"triangular_testing","helps":0,"answer":["K","L"],"clicked":[["answer","clicked"],["A ","false"],["M ","false"],["D ","false"],["N ","false"],["B ","false"],["F ","false"],["H ","false"],["G ","false"],["O ","false"],["C ","false"],["J ","false"],["I ","false"],["E ","false"],["L ","false"],["K ","false"]],"correct":1,"scaffold":"none","question":"during+overlap","scenario":"longmire","graph":"triangular","condition":2,"session":"mike","experiment":"experiment","subject":"GP70L","internal_node_id":"0.0-9.0-3.0","time_elapsed":977725,"trial_index":27,"trial_type":"html","url":"../views/src/external/stimulus.html","rt":54942},{"block":"triangular_testing","helps":0,"answer":["4","5"],"clicked":[["answer","clicked"],["A ","false"],["M ","false"],["D ","false"],["N ","false"],["B ","false"],["F ","false"],["H ","false"],["G ","false"],["O ","false"],["C ","false"],["J ","false"],["I ","false"],["E ","false"],["L ","false"],["K ","false"]],"correct":1,"scaffold":"none","question":"finishes","scenario":"longmire","graph":"triangular","condition":2,"session":"mike","experiment":"experiment","subject":"GP70L","internal_node_id":"0.0-9.0-6.0","time_elapsed":1000917,"trial_index":28,"trial_type":"html","url":"../views/src/external/stimulus.html","rt":21941},{"block":"triangular_testing","helps":0,"answer":["B","C","D","F","G","H","I","J","L","O"],"clicked":[["answer","clicked"],["A ","false"],["M ","false"],["D ","false"],["N ","false"],["B ","false"],["F ","false"],["H ","false"],["G ","false"],["O ","false"],["C ","false"],["J ","false"],["I ","false"],["E ","false"],["L ","false"],["K ","false"]],"correct":0,"scaffold":"none","question":"during","scenario":"longmire","graph":"triangular","condition":2,"session":"mike","experiment":"experiment","subject":"GP70L","internal_node_id":"0.0-9.0-7.0","time_elapsed":1149850,"trial_index":29,"trial_type":"html","url":"../views/src/external/stimulus.html","rt":147687},{"block":"triangular_testing","helps":0,"answer":["A","B","C","D","F","I"],"clicked":[["answer","clicked"],["A ","false"],["M ","false"],["D ","false"],["N ","false"],["B ","false"],["F ","false"],["H ","false"],["G ","false"],["O ","false"],["C ","false"],["J ","false"],["I ","false"],["E ","false"],["L ","false"],["K ","false"]],"correct":1,"scaffold":"none","question":"before+overlap","scenario":"longmire","graph":"triangular","condition":2,"session":"mike","experiment":"experiment","subject":"GP70L","internal_node_id":"0.0-9.0-1.0","time_elapsed":1180333,"trial_index":30,"trial_type":"html","url":"../views/src/external/stimulus.html","rt":29126},{"block":"triangular_testing","helps":0,"answer":["C"],"clicked":[["answer","clicked"],["A ","false"],["M ","false"],["D ","false"],["N ","false"],["B ","false"],["F ","false"],["H ","false"],["G ","false"],["O ","false"],["C ","false"],["J ","false"],["I ","false"],["E ","false"],["L ","false"],["K ","false"]],"correct":1,"scaffold":"none","question":"starts+finishes","scenario":"longmire","graph":"triangular","condition":2,"session":"mike","experiment":"experiment","subject":"GP70L","internal_node_id":"0.0-9.0-9.0","time_elapsed":1197373,"trial_index":31,"trial_type":"html","url":"../views/src/external/stimulus.html","rt":15790},{"block":"triangular_testing","helps":0,"answer":["6","8"],"clicked":[["answer","clicked"],["A ","false"],["M ","false"],["D ","false"],["N ","false"],["B ","false"],["F ","false"],["H ","false"],["G ","false"],["O ","false"],["C ","false"],["J ","false"],["I ","false"],["E ","false"],["L ","false"],["K ","false"]],"correct":1,"scaffold":"none","question":"starts","scenario":"longmire","graph":"triangular","condition":2,"session":"mike","experiment":"experiment","subject":"GP70L","internal_node_id":"0.0-9.0-5.0","time_elapsed":1217654,"trial_index":32,"trial_type":"html","url":"../views/src/external/stimulus.html","rt":19035},{"block":"triangular_testing","helps":0,"answer":["A","M","N"],"clicked":[["answer","clicked"],["A ","false"],["M ","false"],["D ","false"],["N ","false"],["B ","false"],["F ","false"],["H ","false"],["G ","false"],["O ","false"],["C ","false"],["J ","false"],["I ","false"],["E ","false"],["L ","false"],["K ","false"]],"correct":1,"scaffold":"none","question":"overlap+overlap","scenario":"longmire","graph":"triangular","condition":2,"session":"mike","experiment":"experiment","subject":"GP70L","internal_node_id":"0.0-9.0-2.0","time_elapsed":1242935,"trial_index":33,"trial_type":"html","url":"../views/src/external/stimulus.html","rt":24037},{"block":"triangular_testing","helps":0,"answer":["B","F"],"clicked":[["answer","clicked"],["A ","false"],["M ","false"],["D ","false"],["N ","false"],["B ","false"],["F ","false"],["H ","false"],["G ","false"],["O ","false"],["C ","false"],["J ","false"],["I ","false"],["E ","false"],["L ","false"],["K ","false"]],"correct":0,"scaffold":"none","question":"contain+duration","scenario":"longmire","graph":"triangular","condition":2,"session":"mike","experiment":"experiment","subject":"GP70L","internal_node_id":"0.0-9.0-4.0","time_elapsed":1287478,"trial_index":34,"trial_type":"html","url":"../views/src/external/stimulus.html","rt":43282},{"block":"triangular_testing","helps":0,"answer":["A","B","D","F"],"clicked":[["answer","clicked"],["A ","false"],["M ","false"],["D ","false"],["N ","false"],["B ","false"],["F ","false"],["H ","false"],["G ","false"],["O ","false"],["C ","false"],["J ","false"],["I ","false"],["E ","false"],["L ","false"],["K ","false"]],"correct":1,"scaffold":"none","question":"start+duration","scenario":"longmire","graph":"triangular","condition":2,"session":"mike","experiment":"experiment","subject":"GP70L","internal_node_id":"0.0-9.0-0.0","time_elapsed":1313548,"trial_index":35,"trial_type":"html","url":"../views/src/external/stimulus.html","rt":24824},{"condition":2,"session":"mike","experiment":"experiment","subject":"GP70L","internal_node_id":"0.0-10.0","time_elapsed":1331297,"trial_index":36,"trial_type":"single-stim","block":"scenario-draw","key_press":13,"stimulus":"img/jones.png","rt":16745},{"condition":2,"session":"mike","experiment":"experiment","subject":"GP70L","internal_node_id":"0.0-11.0","time_elapsed":1613861,"trial_index":37,"trial_type":"html","block":"instructions_drawing","url":"../views/src/external/instructions_draw.html","rt":281475},{"block":"drawingTest","clicked":[["answer","clicked"]],"answer":["C1"],"correct":1,"scaffold":"none","question":"duration","scenario":"jones","graph":"none","condition":2,"session":"mike","experiment":"experiment","subject":"GP70L","internal_node_id":"0.0-12.0","time_elapsed":1821353,"trial_index":38,"trial_type":"html","url":"../views/src/external/stimulus.html","rt":206156},{"block":"drawingTest","clicked":[["answer","clicked"]],"answer":["Chris","3-4pm"],"correct":1,"scaffold":"none","question":"overlap","scenario":"jones","graph":"none","condition":2,"session":"mike","experiment":"experiment","subject":"GP70L","internal_node_id":"0.0-13.0","time_elapsed":1898605,"trial_index":39,"trial_type":"html","url":"../views/src/external/stimulus.html","rt":75912},{"condition":2,"session":"mike","experiment":"experiment","subject":"GP70L","internal_node_id":"0.0-14.0","time_elapsed":1907228,"trial_index":40,"trial_type":"survey-text","block":"demo-1","responses":"{\"Q0\":\"19\",\"Q1\":\"USA\"}","rt":7617},{"condition":2,"session":"mike","experiment":"experiment","subject":"GP70L","internal_node_id":"0.0-15.0","time_elapsed":1938744,"trial_index":41,"trial_type":"survey-multi-choice","block":"demo-2","responses":"{\"Q0\":\"English\",\"Q1\":\"Second\",\"Q2\":\"Math or Computer Sciences\",\"Q3\":\"Male\",\"Q4\":\"the second one (triangular)\"}","rt":30490},{"condition":2,"session":"mike","experiment":"experiment","subject":"GP70L","internal_node_id":"0.0-16.0","time_elapsed":1951516,"trial_index":42,"trial_type":"html","block":"debrief","url":"../views/src/external/debrief.html","rt":11596}],"__v":0}
{"_id":{"$oid":"58c483e88dfa930004a8084d"},"data":[{"condition":4,"session":"mike","experiment":"reverse","subject":"VVNY9","internal_node_id":"0.0-0.0","time_elapsed":225553,"trial_index":0,"trial_type":"single-stim","block":"phone","key_press":13,"stimulus":"img/phone.png","rt":225545},{"condition":4,"session":"mike","experiment":"reverse","subject":"VVNY9","internal_node_id":"0.0-1.0","time_elapsed":249455,"trial_index":1,"trial_type":"html","block":"consent","url":"../views/src/external/consent.html","rt":22720},{"condition":4,"session":"mike","experiment":"reverse","subject":"VVNY9","internal_node_id":"0.0-2.0","time_elapsed":259614,"trial_index":2,"trial_type":"survey-text","block":"codes","responses":"{\"Q0\":\"MIKE\",\"Q1\":\"4\"}","rt":9146},{"condition":4,"session":"mike","experiment":"reverse","subject":"VVNY9","internal_node_id":"0.0-3.0","time_elapsed":292705,"trial_index":3,"trial_type":"html","block":"instructions_lab","url":"../views/src/external/instructions_lab.html","rt":31996},{"condition":4,"session":"mike","experiment":"reverse","subject":"VVNY9","internal_node_id":"0.0-4.0","time_elapsed":310038,"trial_index":4,"trial_type":"single-stim","block":"scenario-two","key_press":13,"stimulus":"img/axis.png","rt":16330},{"block":"triangular_scaffolded","helps":0,"clicked":[["answer","clicked"],["M ","false"],["B ","false"],["J ","false"],["N ","false"],["D ","false"],["O ","false"],["K ","false"],["C ","false"],["F ","false"],["I ","false"],["H ","false"],["G ","false"],["L ","false"],["E ","false"],["A ","false"]],"answer":["H","O"],"correct":1,"scaffold":"show-interactive","question":"start","scenario":"axis","graph":"triangular","condition":4,"session":"mike","experiment":"reverse","subject":"VVNY9","internal_node_id":"0.0-5.0-0.0","time_elapsed":335927,"trial_index":5,"trial_type":"html","url":"../views/src/external/stimulus.html","rt":24548},{"block":"triangular_scaffolded","helps":0,"clicked":[["answer","clicked"],["M ","false"],["B ","false"],["J ","false"],["N ","false"],["D ","false"],["O ","false"],["K ","false"],["C ","false"],["F ","false"],["I ","false"],["H ","false"],["G ","false"],["L ","false"],["E ","false"],["A ","false"]],"answer":["4"],"correct":1,"scaffold":"show-interactive","question":"end","scenario":"axis","graph":"triangular","condition":4,"session":"mike","experiment":"reverse","subject":"VVNY9","internal_node_id":"0.0-5.0-1.0","time_elapsed":345523,"trial_index":6,"trial_type":"html","url":"../views/src/external/stimulus.html","rt":8339},{"block":"triangular_scaffolded","helps":0,"clicked":[["answer","clicked"],["M ","false"],["B ","false"],["J ","false"],["N ","false"],["D ","false"],["O ","false"],["K ","false"],["C ","false"],["F ","false"],["I ","false"],["H ","false"],["G ","false"],["L ","false"],["E ","false"],["A ","false"]],"answer":["C","F","K"],"correct":0,"scaffold":"show-interactive","question":"duration","scenario":"axis","graph":"triangular","condition":4,"session":"mike","experiment":"reverse","subject":"VVNY9","internal_node_id":"0.0-5.0-2.0","time_elapsed":362521,"trial_index":7,"trial_type":"html","url":"../views/src/external/stimulus.html","rt":15706},{"block":"triangular_scaffolded","helps":0,"clicked":[["answer","clicked"],["M ","false"],["B ","false"],["J ","false"],["N ","false"],["D ","false"],["O ","false"],["K ","false"],["C ","false"],["F ","false"],["I ","false"],["H ","false"],["G ","false"],["L ","false"],["E ","false"],["A ","false"]],"answer":["8"],"correct":1,"scaffold":"show-interactive","question":"midpoint","scenario":"axis","graph":"triangular","condition":4,"session":"mike","experiment":"reverse","subject":"VVNY9","internal_node_id":"0.0-5.0-3.0","time_elapsed":391430,"trial_index":8,"trial_type":"html","url":"../views/src/external/stimulus.html","rt":27664},{"block":"triangular_scaffolded","helps":0,"clicked":[["answer","clicked"],["M ","false"],["B ","false"],["J ","false"],["N ","false"],["D ","false"],["O ","false"],["K ","false"],["C ","false"],["F ","false"],["I ","false"],["H ","false"],["G ","false"],["L ","false"],["E ","false"],["A ","false"]],"answer":["7"],"correct":1,"scaffold":"show-interactive","question":"start+overlap","scenario":"axis","graph":"triangular","condition":4,"session":"mike","experiment":"reverse","subject":"VVNY9","internal_node_id":"0.0-5.0-4.0","time_elapsed":427161,"trial_index":9,"trial_type":"html","url":"../views/src/external/stimulus.html","rt":34485},{"block":"triangular_testing","helps":0,"answer":["A","B","C","E","J"],"clicked":[["answer","clicked"],["M ","false"],["B ","false"],["J ","false"],["N ","false"],["D ","false"],["O ","false"],["K ","false"],["C ","false"],["F ","false"],["I ","false"],["H ","false"],["G ","false"],["L ","false"],["E ","false"],["A ","false"]],"correct":1,"scaffold":"none","question":"overlap+overlap","scenario":"axis","graph":"triangular","condition":4,"session":"mike","experiment":"reverse","subject":"VVNY9","internal_node_id":"0.0-6.0-2.0","time_elapsed":465530,"trial_index":10,"trial_type":"html","url":"../views/src/external/stimulus.html","rt":37122},{"block":"triangular_testing","helps":0,"answer":["6"],"clicked":[["answer","clicked"],["M ","false"],["B ","false"],["J ","false"],["N ","false"],["D ","false"],["O ","false"],["K ","false"],["C ","false"],["F ","false"],["I ","false"],["H ","false"],["G ","false"],["L ","false"],["E ","false"],["A ","false"]],"correct":1,"scaffold":"none","question":"starts","scenario":"axis","graph":"triangular","condition":4,"session":"mike","experiment":"reverse","subject":"VVNY9","internal_node_id":"0.0-6.0-5.0","time_elapsed":491122,"trial_index":11,"trial_type":"html","url":"../views/src/external/stimulus.html","rt":24345},{"block":"triangular_testing","helps":0,"answer":["A"],"clicked":[["answer","clicked"],["M ","false"],["B ","false"],["J ","false"],["N ","false"],["D ","false"],["O ","false"],["K ","false"],["C ","false"],["F ","false"],["I ","false"],["H ","false"],["G ","false"],["L ","false"],["E ","false"],["A ","false"]],"correct":1,"scaffold":"none","question":"during+overlap","scenario":"axis","graph":"triangular","condition":4,"session":"mike","experiment":"reverse","subject":"VVNY9","internal_node_id":"0.0-6.0-3.0","time_elapsed":517115,"trial_index":12,"trial_type":"html","url":"../views/src/external/stimulus.html","rt":24749},{"block":"triangular_testing","helps":0,"answer":["F","M","O"],"clicked":[["answer","clicked"],["M ","false"],["B ","false"],["J ","false"],["N ","false"],["D ","false"],["O ","false"],["K ","false"],["C ","false"],["F ","false"],["I ","false"],["H ","false"],["G ","false"],["L ","false"],["E ","false"],["A ","false"]],"correct":1,"scaffold":"none","question":"during","scenario":"axis","graph":"triangular","condition":4,"session":"mike","experiment":"reverse","subject":"VVNY9","internal_node_id":"0.0-6.0-7.0","time_elapsed":530836,"trial_index":13,"trial_type":"html","url":"../views/src/external/stimulus.html","rt":12474},{"block":"triangular_testing","helps":0,"answer":["G"],"clicked":[["answer","clicked"],["M ","false"],["B ","false"],["J ","false"],["N ","false"],["D ","false"],["O ","false"],["K ","false"],["C ","false"],["F ","false"],["I ","false"],["H ","false"],["G ","false"],["L ","false"],["E ","false"],["A ","false"]],"correct":1,"scaffold":"none","question":"starts+finishes","scenario":"axis","graph":"triangular","condition":4,"session":"mike","experiment":"reverse","subject":"VVNY9","internal_node_id":"0.0-6.0-9.0","time_elapsed":542888,"trial_index":14,"trial_type":"html","url":"../views/src/external/stimulus.html","rt":10807},{"block":"triangular_testing","helps":0,"answer":["G"],"clicked":[["answer","clicked"],["M ","false"],["B ","false"],["J ","false"],["N ","false"],["D ","false"],["O ","false"],["K ","false"],["C ","false"],["F ","false"],["I ","false"],["H ","false"],["G ","false"],["L ","false"],["E ","false"],["A ","false"]],"correct":1,"scaffold":"none","question":"meets","scenario":"axis","graph":"triangular","condition":4,"session":"mike","experiment":"reverse","subject":"VVNY9","internal_node_id":"0.0-6.0-8.0","time_elapsed":572090,"trial_index":15,"trial_type":"html","url":"../views/src/external/stimulus.html","rt":27953},{"block":"triangular_testing","helps":0,"answer":["F","G","M","O"],"clicked":[["answer","clicked"],["M ","false"],["B ","false"],["J ","false"],["N ","false"],["D ","false"],["O ","false"],["K ","false"],["C ","false"],["F ","false"],["I ","false"],["H ","false"],["G ","false"],["L ","false"],["E ","false"],["A ","false"]],"correct":1,"scaffold":"none","question":"before+overlap","scenario":"axis","graph":"triangular","condition":4,"session":"mike","experiment":"reverse","subject":"VVNY9","internal_node_id":"0.0-6.0-1.0","time_elapsed":604706,"trial_index":16,"trial_type":"html","url":"../views/src/external/stimulus.html","rt":31359},{"block":"triangular_testing","helps":0,"answer":["9"],"clicked":[["answer","clicked"],["M ","false"],["B ","false"],["J ","false"],["N ","false"],["D ","false"],["O ","false"],["K ","false"],["C ","false"],["F ","false"],["I ","false"],["H ","false"],["G ","false"],["L ","false"],["E ","false"],["A ","false"]],"correct":1,"scaffold":"none","question":"start+duration","scenario":"axis","graph":"triangular","condition":4,"session":"mike","experiment":"reverse","subject":"VVNY9","internal_node_id":"0.0-6.0-0.0","time_elapsed":621057,"trial_index":17,"trial_type":"html","url":"../views/src/external/stimulus.html","rt":15096},{"block":"triangular_testing","helps":0,"answer":["D","M","N","O"],"clicked":[["answer","clicked"],["M ","false"],["B ","false"],["J ","false"],["N ","false"],["D ","false"],["O ","false"],["K ","false"],["C ","false"],["F ","false"],["I ","false"],["H ","false"],["G ","false"],["L ","false"],["E ","false"],["A ","false"]],"correct":1,"scaffold":"none","question":"contain+duration","scenario":"axis","graph":"triangular","condition":4,"session":"mike","experiment":"reverse","subject":"VVNY9","internal_node_id":"0.0-6.0-4.0","time_elapsed":648549,"trial_index":18,"trial_type":"html","url":"../views/src/external/stimulus.html","rt":26242},{"block":"triangular_testing","helps":0,"answer":["G","O"],"clicked":[["answer","clicked"],["M ","false"],["B ","false"],["J ","false"],["N ","false"],["D ","false"],["O ","false"],["K ","false"],["C ","false"],["F ","false"],["I ","false"],["H ","false"],["G ","false"],["L ","false"],["E ","false"],["A ","false"]],"correct":1,"scaffold":"none","question":"finishes","scenario":"axis","graph":"triangular","condition":4,"session":"mike","experiment":"reverse","subject":"VVNY9","internal_node_id":"0.0-6.0-6.0","time_elapsed":661407,"trial_index":19,"trial_type":"html","url":"../views/src/external/stimulus.html","rt":11600},{"condition":4,"session":"mike","experiment":"reverse","subject":"VVNY9","internal_node_id":"0.0-7.0","time_elapsed":682466,"trial_index":20,"trial_type":"single-stim","block":"scenario-one","key_press":13,"stimulus":"img/longmire.png","rt":20049},{"block":"linear_scaffolded","helps":0,"clicked":[["answer","clicked"],["A ","false"],["M ","false"],["D ","false"],["N ","false"],["B ","false"],["F ","false"],["H ","false"],["G ","false"],["O ","false"],["C ","false"],["J ","false"],["I ","false"],["E ","false"],["L ","false"],["K ","false"]],"answer":["C","D","L"],"correct":1,"scaffold":"show-interactive","question":"start","scenario":"longmire","graph":"linear","condition":4,"session":"mike","experiment":"reverse","subject":"VVNY9","internal_node_id":"0.0-8.0-0.0","time_elapsed":697469,"trial_index":21,"trial_type":"html","url":"../views/src/external/stimulus.html","rt":13752},{"block":"linear_scaffolded","helps":0,"clicked":[["answer","clicked"],["A ","false"],["M ","false"],["D ","false"],["N ","false"],["B ","false"],["F ","false"],["H ","false"],["G ","false"],["O ","false"],["C ","false"],["J ","false"],["I ","false"],["E ","false"],["L ","false"],["K ","false"]],"answer":["H","J","K","L","O"],"correct":0,"scaffold":"show-interactive","question":"end","scenario":"longmire","graph":"linear","condition":4,"session":"mike","experiment":"reverse","subject":"VVNY9","internal_node_id":"0.0-8.0-1.0","time_elapsed":718717,"trial_index":22,"trial_type":"html","url":"../views/src/external/stimulus.html","rt":20005},{"block":"linear_scaffolded","helps":0,"clicked":[["answer","clicked"],["A ","false"],["M ","false"],["D ","false"],["N ","false"],["B ","false"],["F ","false"],["H ","false"],["G ","false"],["O ","false"],["C ","false"],["J ","false"],["I ","false"],["E ","false"],["L ","false"],["K ","false"]],"answer":["G","O"],"correct":1,"scaffold":"show-interactive","question":"duration","scenario":"longmire","graph":"linear","condition":4,"session":"mike","experiment":"reverse","subject":"VVNY9","internal_node_id":"0.0-8.0-2.0","time_elapsed":740578,"trial_index":23,"trial_type":"html","url":"../views/src/external/stimulus.html","rt":20612},{"block":"linear_scaffolded","helps":0,"clicked":[["answer","clicked"],["A ","false"],["M ","false"],["D ","false"],["N ","false"],["B ","false"],["F ","false"],["H ","false"],["G ","false"],["O ","false"],["C ","false"],["J ","false"],["I ","false"],["E ","false"],["L ","false"],["K ","false"]],"answer":["1"],"correct":1,"scaffold":"show-interactive","question":"midpoint","scenario":"longmire","graph":"linear","condition":4,"session":"mike","experiment":"reverse","subject":"VVNY9","internal_node_id":"0.0-8.0-3.0","time_elapsed":752551,"trial_index":24,"trial_type":"html","url":"../views/src/external/stimulus.html","rt":10724},{"block":"linear_scaffolded","helps":0,"clicked":[["answer","clicked"],["A ","false"],["M ","false"],["D ","false"],["N ","false"],["B ","false"],["F ","false"],["H ","false"],["G ","false"],["O ","false"],["C ","false"],["J ","false"],["I ","false"],["E ","false"],["L ","false"],["K ","false"]],"answer":["A"],"correct":1,"scaffold":"show-interactive","question":"start+overlap","scenario":"longmire","graph":"linear","condition":4,"session":"mike","experiment":"reverse","subject":"VVNY9","internal_node_id":"0.0-8.0-4.0","time_elapsed":767126,"trial_index":25,"trial_type":"html","url":"../views/src/external/stimulus.html","rt":13332},{"block":"linear_testing","helps":0,"clicked":[["answer","clicked"],["A ","false"],["M ","false"],["D ","false"],["N ","false"],["B ","false"],["F ","false"],["H ","false"],["G ","false"],["O ","false"],["C ","false"],["J ","false"],["I ","false"],["E ","false"],["L ","false"],["K ","false"]],"answer":["4","5"],"correct":1,"scaffold":"none","question":"finishes","scenario":"longmire","graph":"linear","condition":4,"session":"mike","experiment":"reverse","subject":"VVNY9","internal_node_id":"0.0-9.0-6.0","time_elapsed":809577,"trial_index":26,"trial_type":"html","url":"../views/src/external/stimulus.html","rt":41206},{"block":"linear_testing","helps":0,"clicked":[["answer","clicked"],["A ","false"],["M ","false"],["D ","false"],["N ","false"],["B ","false"],["F ","false"],["H ","false"],["G ","false"],["O ","false"],["C ","false"],["J ","false"],["I ","false"],["E ","false"],["L ","false"],["K ","false"]],"answer":["6","8"],"correct":1,"scaffold":"none","question":"starts","scenario":"longmire","graph":"linear","condition":4,"session":"mike","experiment":"reverse","subject":"VVNY9","internal_node_id":"0.0-9.0-5.0","time_elapsed":834401,"trial_index":27,"trial_type":"html","url":"../views/src/external/stimulus.html","rt":23561},{"block":"linear_testing","helps":0,"clicked":[["answer","clicked"],["A ","false"],["M ","false"],["D ","false"],["N ","false"],["B ","false"],["F ","false"],["H ","false"],["G ","false"],["O ","false"],["C ","false"],["J ","false"],["I ","false"],["E ","false"],["L ","false"],["K ","false"]],"answer":[],"correct":0,"scaffold":"none","question":"contain+duration","scenario":"longmire","graph":"linear","condition":4,"session":"mike","experiment":"reverse","subject":"VVNY9","internal_node_id":"0.0-9.0-4.0","time_elapsed":909288,"trial_index":28,"trial_type":"html","url":"../views/src/external/stimulus.html","rt":73640},{"block":"linear_testing","helps":0,"clicked":[["answer","clicked"],["A ","false"],["M ","false"],["D ","false"],["N ","false"],["B ","false"],["F ","false"],["H ","false"],["G ","false"],["O ","false"],["C ","false"],["J ","false"],["I ","false"],["E ","false"],["L ","false"],["K ","false"]],"answer":["A","M","N"],"correct":1,"scaffold":"none","question":"overlap+overlap","scenario":"longmire","graph":"linear","condition":4,"session":"mike","experiment":"reverse","subject":"VVNY9","internal_node_id":"0.0-9.0-2.0","time_elapsed":942842,"trial_index":29,"trial_type":"html","url":"../views/src/external/stimulus.html","rt":32203},{"block":"linear_testing","helps":0,"clicked":[["answer","clicked"],["A ","false"],["M ","false"],["D ","false"],["N ","false"],["B ","false"],["F ","false"],["H ","false"],["G ","false"],["O ","false"],["C ","false"],["J ","false"],["I ","false"],["E ","false"],["L ","false"],["K ","false"]],"answer":["C"],"correct":1,"scaffold":"none","question":"starts+finishes","scenario":"longmire","graph":"linear","condition":4,"session":"mike","experiment":"reverse","subject":"VVNY9","internal_node_id":"0.0-9.0-9.0","time_elapsed":958790,"trial_index":30,"trial_type":"html","url":"../views/src/external/stimulus.html","rt":14637},{"block":"linear_testing","helps":0,"clicked":[["answer","clicked"],["A ","false"],["M ","false"],["D ","false"],["N ","false"],["B ","false"],["F ","false"],["H ","false"],["G ","false"],["O ","false"],["C ","false"],["J ","false"],["I ","false"],["E ","false"],["L ","false"],["K ","false"]],"answer":["A","B","D","F"],"correct":1,"scaffold":"none","question":"start+duration","scenario":"longmire","graph":"linear","condition":4,"session":"mike","experiment":"reverse","subject":"VVNY9","internal_node_id":"0.0-9.0-0.0","time_elapsed":985299,"trial_index":31,"trial_type":"html","url":"../views/src/external/stimulus.html","rt":25252},{"block":"linear_testing","helps":0,"clicked":[["answer","clicked"],["A ","false"],["M ","false"],["D ","false"],["N ","false"],["B ","false"],["F ","false"],["H ","false"],["G ","false"],["O ","false"],["C ","false"],["J ","false"],["I ","false"],["E ","false"],["L ","false"],["K ","false"]],"answer":["A","B","C","D","F","I"],"correct":1,"scaffold":"none","question":"before+overlap","scenario":"longmire","graph":"linear","condition":4,"session":"mike","experiment":"reverse","subject":"VVNY9","internal_node_id":"0.0-9.0-1.0","time_elapsed":1025724,"trial_index":32,"trial_type":"html","url":"../views/src/external/stimulus.html","rt":39173},{"block":"linear_testing","helps":0,"clicked":[["answer","clicked"],["A ","false"],["M ","false"],["D ","false"],["N ","false"],["B ","false"],["F ","false"],["H ","false"],["G ","false"],["O ","false"],["C ","false"],["J ","false"],["I ","false"],["E ","false"],["L ","false"],["K ","false"]],"answer":["K","L"],"correct":1,"scaffold":"none","question":"during+overlap","scenario":"longmire","graph":"linear","condition":4,"session":"mike","experiment":"reverse","subject":"VVNY9","internal_node_id":"0.0-9.0-3.0","time_elapsed":1057916,"trial_index":33,"trial_type":"html","url":"../views/src/external/stimulus.html","rt":30940},{"block":"linear_testing","helps":0,"clicked":[["answer","clicked"],["A ","false"],["M ","false"],["D ","false"],["N ","false"],["B ","false"],["F ","false"],["H ","false"],["G ","false"],["O ","false"],["C ","false"],["J ","false"],["I ","false"],["E ","false"],["L ","false"],["K ","false"]],"answer":["B","C","D","F","G","H","I","J","L","O"],"correct":0,"scaffold":"none","question":"during","scenario":"longmire","graph":"linear","condition":4,"session":"mike","experiment":"reverse","subject":"VVNY9","internal_node_id":"0.0-9.0-7.0","time_elapsed":1179672,"trial_index":34,"trial_type":"html","url":"../views/src/external/stimulus.html","rt":120498},{"block":"linear_testing","helps":0,"clicked":[["answer","clicked"],["A ","false"],["M ","false"],["D ","false"],["N ","false"],["B ","false"],["F ","false"],["H ","false"],["G ","false"],["O ","false"],["C ","false"],["J ","false"],["I ","false"],["E ","false"],["L ","false"],["K ","false"]],"answer":["O"],"correct":1,"scaffold":"none","question":"meets","scenario":"longmire","graph":"linear","condition":4,"session":"mike","experiment":"reverse","subject":"VVNY9","internal_node_id":"0.0-9.0-8.0","time_elapsed":1208009,"trial_index":35,"trial_type":"html","url":"../views/src/external/stimulus.html","rt":26982},{"condition":4,"session":"mike","experiment":"reverse","subject":"VVNY9","internal_node_id":"0.0-10.0","time_elapsed":1251737,"trial_index":36,"trial_type":"single-stim","block":"scenario-draw","key_press":13,"stimulus":"img/jones.png","rt":42720},{"condition":4,"session":"mike","experiment":"reverse","subject":"VVNY9","internal_node_id":"0.0-11.0","time_elapsed":1836173,"trial_index":37,"trial_type":"html","block":"instructions_drawing","url":"../views/src/external/instructions_draw.html","rt":583314},{"block":"drawingTest","clicked":[["answer","clicked"]],"answer":["C1"],"correct":1,"scaffold":"none","question":"duration","scenario":"jones","graph":"none","condition":4,"session":"mike","experiment":"reverse","subject":"VVNY9","internal_node_id":"0.0-12.0","time_elapsed":1893323,"trial_index":38,"trial_type":"html","url":"../views/src/external/stimulus.html","rt":55783},{"block":"drawingTest","clicked":[["answer","clicked"]],"answer":["Chris","3-4pm"],"correct":1,"scaffold":"none","question":"overlap","scenario":"jones","graph":"none","condition":4,"session":"mike","experiment":"reverse","subject":"VVNY9","internal_node_id":"0.0-13.0","time_elapsed":1911183,"trial_index":39,"trial_type":"html","url":"../views/src/external/stimulus.html","rt":16604},{"condition":4,"session":"mike","experiment":"reverse","subject":"VVNY9","internal_node_id":"0.0-14.0","time_elapsed":1919441,"trial_index":40,"trial_type":"survey-text","block":"demo-1","responses":"{\"Q0\":\"21\",\"Q1\":\"Colombia\"}","rt":7252},{"condition":4,"session":"mike","experiment":"reverse","subject":"VVNY9","internal_node_id":"0.0-15.0","time_elapsed":1942997,"trial_index":41,"trial_type":"survey-multi-choice","block":"demo-2","responses":"{\"Q0\":\"Spanish\",\"Q1\":\"Third\",\"Q2\":\"Social Sciences (incl. CogSci)\",\"Q3\":\"Female\",\"Q4\":\"the second one (triangular)\"}","rt":22535},{"condition":4,"session":"mike","experiment":"reverse","subject":"VVNY9","internal_node_id":"0.0-16.0","time_elapsed":2010913,"trial_index":42,"trial_type":"html","block":"debrief","url":"../views/src/external/debrief.html","rt":66824}],"__v":0}
