{"_id":{"$oid":"58c2e4c20393500004892629"},"data":[{"condition":2,"session":"golf","experiment":"experiment","subject":"9ZMW8","internal_node_id":"0.0-0.0","time_elapsed":523348,"trial_index":0,"trial_type":"single-stim","block":"phone","key_press":13,"stimulus":"img/phone.png","rt":523340},{"condition":2,"session":"golf","experiment":"experiment","subject":"9ZMW8","internal_node_id":"0.0-1.0","time_elapsed":533608,"trial_index":1,"trial_type":"html","block":"consent","url":"../views/src/external/consent.html","rt":8909},{"condition":2,"session":"golf","experiment":"experiment","subject":"9ZMW8","internal_node_id":"0.0-2.0","time_elapsed":544665,"trial_index":2,"trial_type":"survey-text","block":"codes","responses":"{\"Q0\":\"GOLF\",\"Q1\":\"2\"}","rt":10050},{"condition":2,"session":"golf","experiment":"experiment","subject":"9ZMW8","internal_node_id":"0.0-3.0","time_elapsed":552562,"trial_index":3,"trial_type":"html","block":"instructions_lab","url":"../views/src/external/instructions_lab.html","rt":6449},{"condition":2,"session":"golf","experiment":"experiment","subject":"9ZMW8","internal_node_id":"0.0-4.0","time_elapsed":565499,"trial_index":4,"trial_type":"single-stim","block":"scenario-one","key_press":13,"stimulus":"img/longmire.png","rt":11934},{"block":"linear_scaffolded","helps":0,"clicked":[["answer","clicked"],["A ","false"],["M ","false"],["D ","false"],["N ","false"],["B ","false"],["F ","false"],["H ","false"],["G ","false"],["O ","false"],["C ","false"],["J ","false"],["I ","false"],["E ","false"],["L ","false"],["K ","false"]],"answer":["C","D","L"],"correct":1,"scaffold":"describe-how","question":"start","scenario":"longmire","graph":"linear","condition":2,"session":"golf","experiment":"experiment","subject":"9ZMW8","internal_node_id":"0.0-5.0-0.0","time_elapsed":601016,"trial_index":5,"trial_type":"html","url":"../views/src/external/stimulus.html","rt":34060},{"block":"linear_scaffolded","helps":0,"clicked":[["answer","clicked"],["A ","false"],["M ","false"],["D ","false"],["N ","false"],["B ","false"],["F ","false"],["H ","false"],["G ","false"],["O ","false"],["C ","false"],["J ","false"],["I ","false"],["E ","false"],["L ","false"],["K ","false"]],"answer":["H","J","K","L","M","N","O"],"correct":1,"scaffold":"describe-how","question":"end","scenario":"longmire","graph":"linear","condition":2,"session":"golf","experiment":"experiment","subject":"9ZMW8","internal_node_id":"0.0-5.0-1.0","time_elapsed":629011,"trial_index":6,"trial_type":"html","url":"../views/src/external/stimulus.html","rt":26671},{"block":"linear_scaffolded","helps":0,"clicked":[["answer","clicked"],["A ","false"],["M ","false"],["D ","false"],["N ","false"],["B ","false"],["F ","false"],["H ","false"],["G ","false"],["O ","false"],["C ","false"],["J ","false"],["I ","false"],["E ","false"],["L ","false"],["K ","false"]],"answer":["G","O"],"correct":1,"scaffold":"describe-how","question":"duration","scenario":"longmire","graph":"linear","condition":2,"session":"golf","experiment":"experiment","subject":"9ZMW8","internal_node_id":"0.0-5.0-2.0","time_elapsed":667951,"trial_index":7,"trial_type":"html","url":"../views/src/external/stimulus.html","rt":37686},{"block":"linear_scaffolded","helps":0,"clicked":[["answer","clicked"],["A ","false"],["M ","false"],["D ","false"],["N ","false"],["B ","false"],["F ","false"],["H ","false"],["G ","false"],["O ","false"],["C ","false"],["J ","false"],["I ","false"],["E ","false"],["L ","false"],["K ","false"]],"answer":["1"],"correct":1,"scaffold":"describe-how","question":"midpoint","scenario":"longmire","graph":"linear","condition":2,"session":"golf","experiment":"experiment","subject":"9ZMW8","internal_node_id":"0.0-5.0-3.0","time_elapsed":681919,"trial_index":8,"trial_type":"html","url":"../views/src/external/stimulus.html","rt":12693},{"block":"linear_scaffolded","helps":0,"clicked":[["answer","clicked"],["A ","false"],["M ","false"],["D ","false"],["N ","false"],["B ","false"],["F ","false"],["H ","false"],["G ","false"],["O ","false"],["C ","false"],["J ","false"],["I ","false"],["E ","false"],["L ","false"],["K ","false"]],"answer":["A"],"correct":1,"scaffold":"describe-how","question":"start+overlap","scenario":"longmire","graph":"linear","condition":2,"session":"golf","experiment":"experiment","subject":"9ZMW8","internal_node_id":"0.0-5.0-4.0","time_elapsed":694970,"trial_index":9,"trial_type":"html","url":"../views/src/external/stimulus.html","rt":11802},{"block":"linear_testing","helps":0,"clicked":[["answer","clicked"],["A ","false"],["M ","false"],["D ","false"],["N ","false"],["B ","false"],["F ","false"],["H ","false"],["G ","false"],["O ","false"],["C ","false"],["J ","false"],["I ","false"],["E ","false"],["L ","false"],["K ","false"]],"answer":["O"],"correct":1,"scaffold":"none","question":"meets","scenario":"longmire","graph":"linear","condition":2,"session":"golf","experiment":"experiment","subject":"9ZMW8","internal_node_id":"0.0-6.0-8.0","time_elapsed":706719,"trial_index":10,"trial_type":"html","url":"../views/src/external/stimulus.html","rt":10482},{"block":"linear_testing","helps":0,"clicked":[["answer","clicked"],["A ","false"],["M ","false"],["D ","false"],["N ","false"],["B ","false"],["F ","false"],["H ","false"],["G ","false"],["O ","false"],["C ","false"],["J ","false"],["I ","false"],["E ","false"],["L ","false"],["K ","false"]],"answer":["K","L"],"correct":1,"scaffold":"none","question":"during+overlap","scenario":"longmire","graph":"linear","condition":2,"session":"golf","experiment":"experiment","subject":"9ZMW8","internal_node_id":"0.0-6.0-3.0","time_elapsed":740188,"trial_index":11,"trial_type":"html","url":"../views/src/external/stimulus.html","rt":32214},{"block":"linear_testing","helps":0,"clicked":[["answer","clicked"],["A ","false"],["M ","false"],["D ","false"],["N ","false"],["B ","false"],["F ","false"],["H ","false"],["G ","false"],["O ","false"],["C ","false"],["J ","false"],["I ","false"],["E ","false"],["L ","false"],["K ","false"]],"answer":["B","C","D","F","G","H","I","J","L","O"],"correct":0,"scaffold":"none","question":"during","scenario":"longmire","graph":"linear","condition":2,"session":"golf","experiment":"experiment","subject":"9ZMW8","internal_node_id":"0.0-6.0-7.0","time_elapsed":808813,"trial_index":12,"trial_type":"html","url":"../views/src/external/stimulus.html","rt":67372},{"block":"linear_testing","helps":0,"clicked":[["answer","clicked"],["A ","false"],["M ","false"],["D ","false"],["N ","false"],["B ","false"],["F ","false"],["H ","false"],["G ","false"],["O ","false"],["C ","false"],["J ","false"],["I ","false"],["E ","false"],["L ","false"],["K ","false"]],"answer":["A","B","D","F"],"correct":0,"scaffold":"none","question":"before+overlap","scenario":"longmire","graph":"linear","condition":2,"session":"golf","experiment":"experiment","subject":"9ZMW8","internal_node_id":"0.0-6.0-1.0","time_elapsed":830930,"trial_index":13,"trial_type":"html","url":"../views/src/external/stimulus.html","rt":20694},{"block":"linear_testing","helps":0,"clicked":[["answer","clicked"],["A ","false"],["M ","false"],["D ","false"],["N ","false"],["B ","false"],["F ","false"],["H ","false"],["G ","false"],["O ","false"],["C ","false"],["J ","false"],["I ","false"],["E ","false"],["L ","false"],["K ","false"]],"answer":["6","7","8","4"],"correct":0,"scaffold":"none","question":"starts","scenario":"longmire","graph":"linear","condition":2,"session":"golf","experiment":"experiment","subject":"9ZMW8","internal_node_id":"0.0-6.0-5.0","time_elapsed":876839,"trial_index":14,"trial_type":"html","url":"../views/src/external/stimulus.html","rt":44650},{"block":"linear_testing","helps":0,"clicked":[["answer","clicked"],["A ","false"],["M ","false"],["D ","false"],["N ","false"],["B ","false"],["F ","false"],["H ","false"],["G ","false"],["O ","false"],["C ","false"],["J ","false"],["I ","false"],["E ","false"],["L ","false"],["K ","false"]],"answer":[],"correct":0,"scaffold":"none","question":"finishes","scenario":"longmire","graph":"linear","condition":2,"session":"golf","experiment":"experiment","subject":"9ZMW8","internal_node_id":"0.0-6.0-6.0","time_elapsed":911754,"trial_index":15,"trial_type":"html","url":"../views/src/external/stimulus.html","rt":33664},{"block":"linear_testing","helps":0,"clicked":[["answer","clicked"],["A ","false"],["M ","false"],["D ","false"],["N ","false"],["B ","false"],["F ","false"],["H ","false"],["G ","false"],["O ","false"],["C ","false"],["J ","false"],["I ","false"],["E ","false"],["L ","false"],["K ","false"]],"answer":["C"],"correct":1,"scaffold":"none","question":"starts+finishes","scenario":"longmire","graph":"linear","condition":2,"session":"golf","experiment":"experiment","subject":"9ZMW8","internal_node_id":"0.0-6.0-9.0","time_elapsed":928858,"trial_index":16,"trial_type":"html","url":"../views/src/external/stimulus.html","rt":15841},{"block":"linear_testing","helps":0,"clicked":[["answer","clicked"],["A ","false"],["M ","false"],["D ","false"],["N ","false"],["B ","false"],["F ","false"],["H ","false"],["G ","false"],["O ","false"],["C ","false"],["J ","false"],["I ","false"],["E ","false"],["L ","false"],["K ","false"]],"answer":["G","O"],"correct":1,"scaffold":"none","question":"contain+duration","scenario":"longmire","graph":"linear","condition":2,"session":"golf","experiment":"experiment","subject":"9ZMW8","internal_node_id":"0.0-6.0-4.0","time_elapsed":945258,"trial_index":17,"trial_type":"html","url":"../views/src/external/stimulus.html","rt":15148},{"block":"linear_testing","helps":0,"clicked":[["answer","clicked"],["A ","false"],["M ","false"],["D ","false"],["N ","false"],["B ","false"],["F ","false"],["H ","false"],["G ","false"],["O ","false"],["C ","false"],["J ","false"],["I ","false"],["E ","false"],["L ","false"],["K ","false"]],"answer":["A","M","N"],"correct":1,"scaffold":"none","question":"overlap+overlap","scenario":"longmire","graph":"linear","condition":2,"session":"golf","experiment":"experiment","subject":"9ZMW8","internal_node_id":"0.0-6.0-2.0","time_elapsed":971237,"trial_index":18,"trial_type":"html","url":"../views/src/external/stimulus.html","rt":24736},{"block":"linear_testing","helps":0,"clicked":[["answer","clicked"],["A ","false"],["M ","false"],["D ","false"],["N ","false"],["B ","false"],["F ","false"],["H ","false"],["G ","false"],["O ","false"],["C ","false"],["J ","false"],["I ","false"],["E ","false"],["L ","false"],["K ","false"]],"answer":["A","B","D","F"],"correct":1,"scaffold":"none","question":"start+duration","scenario":"longmire","graph":"linear","condition":2,"session":"golf","experiment":"experiment","subject":"9ZMW8","internal_node_id":"0.0-6.0-0.0","time_elapsed":999421,"trial_index":19,"trial_type":"html","url":"../views/src/external/stimulus.html","rt":26886},{"condition":2,"session":"golf","experiment":"experiment","subject":"9ZMW8","internal_node_id":"0.0-7.0","time_elapsed":1019076,"trial_index":20,"trial_type":"single-stim","block":"scenario-two","key_press":13,"stimulus":"img/axis.png","rt":18649},{"block":"triangular_scaffolded","helps":0,"clicked":[["answer","clicked"],["M ","false"],["B ","false"],["J ","false"],["N ","false"],["D ","false"],["O ","false"],["K ","false"],["C ","false"],["F ","false"],["I ","false"],["H ","false"],["G ","false"],["L ","false"],["E ","false"],["A ","false"]],"answer":["H","O"],"correct":1,"scaffold":"describe-how","question":"start","scenario":"axis","graph":"triangular","condition":2,"session":"golf","experiment":"experiment","subject":"9ZMW8","internal_node_id":"0.0-8.0-0.0","time_elapsed":1048590,"trial_index":21,"trial_type":"html","url":"../views/src/external/stimulus.html","rt":28259},{"block":"triangular_scaffolded","helps":0,"clicked":[["answer","clicked"],["M ","false"],["B ","false"],["J ","false"],["N ","false"],["D ","false"],["O ","false"],["K ","false"],["C ","false"],["F ","false"],["I ","false"],["H ","false"],["G ","false"],["L ","false"],["E ","false"],["A ","false"]],"answer":["4"],"correct":1,"scaffold":"describe-how","question":"end","scenario":"axis","graph":"triangular","condition":2,"session":"golf","experiment":"experiment","subject":"9ZMW8","internal_node_id":"0.0-8.0-1.0","time_elapsed":1057309,"trial_index":22,"trial_type":"html","url":"../views/src/external/stimulus.html","rt":7454},{"block":"triangular_scaffolded","helps":0,"clicked":[["answer","clicked"],["M ","false"],["B ","false"],["J ","false"],["N ","false"],["D ","false"],["O ","false"],["K ","false"],["C ","false"],["F ","false"],["I ","false"],["H ","false"],["G ","false"],["L ","false"],["E ","false"],["A ","false"]],"answer":["A","C","E","F","G","H","I","K","L"],"correct":1,"scaffold":"describe-how","question":"duration","scenario":"axis","graph":"triangular","condition":2,"session":"golf","experiment":"experiment","subject":"9ZMW8","internal_node_id":"0.0-8.0-2.0","time_elapsed":1089226,"trial_index":23,"trial_type":"html","url":"../views/src/external/stimulus.html","rt":30657},{"block":"triangular_scaffolded","helps":0,"clicked":[["answer","clicked"],["M ","false"],["B ","false"],["J ","false"],["N ","false"],["D ","false"],["O ","false"],["K ","false"],["C ","false"],["F ","false"],["I ","false"],["H ","false"],["G ","false"],["L ","false"],["E ","false"],["A ","false"]],"answer":["8"],"correct":1,"scaffold":"describe-how","question":"midpoint","scenario":"axis","graph":"triangular","condition":2,"session":"golf","experiment":"experiment","subject":"9ZMW8","internal_node_id":"0.0-8.0-3.0","time_elapsed":1112234,"trial_index":24,"trial_type":"html","url":"../views/src/external/stimulus.html","rt":21750},{"block":"triangular_scaffolded","helps":0,"clicked":[["answer","clicked"],["M ","false"],["B ","false"],["J ","false"],["N ","false"],["D ","false"],["O ","false"],["K ","false"],["C ","false"],["F ","false"],["I ","false"],["H ","false"],["G ","false"],["L ","false"],["E ","false"],["A ","false"]],"answer":["7"],"correct":1,"scaffold":"describe-how","question":"start+overlap","scenario":"axis","graph":"triangular","condition":2,"session":"golf","experiment":"experiment","subject":"9ZMW8","internal_node_id":"0.0-8.0-4.0","time_elapsed":1148245,"trial_index":25,"trial_type":"html","url":"../views/src/external/stimulus.html","rt":34745},{"block":"triangular_testing","helps":0,"answer":["D","M","N","O"],"clicked":[["answer","clicked"],["M ","false"],["B ","false"],["J ","false"],["N ","false"],["D ","false"],["O ","false"],["K ","false"],["C ","false"],["F ","false"],["I ","false"],["H ","false"],["G ","false"],["L ","false"],["E ","false"],["A ","false"]],"correct":1,"scaffold":"none","question":"contain+duration","scenario":"axis","graph":"triangular","condition":2,"session":"golf","experiment":"experiment","subject":"9ZMW8","internal_node_id":"0.0-9.0-4.0","time_elapsed":1172829,"trial_index":26,"trial_type":"html","url":"../views/src/external/stimulus.html","rt":23324},{"block":"triangular_testing","helps":0,"answer":["G","O"],"clicked":[["answer","clicked"],["M ","false"],["B ","false"],["J ","false"],["N ","false"],["D ","false"],["O ","false"],["K ","false"],["C ","false"],["F ","false"],["I ","false"],["H ","false"],["G ","false"],["L ","false"],["E ","false"],["A ","false"]],"correct":1,"scaffold":"none","question":"finishes","scenario":"axis","graph":"triangular","condition":2,"session":"golf","experiment":"experiment","subject":"9ZMW8","internal_node_id":"0.0-9.0-6.0","time_elapsed":1183637,"trial_index":27,"trial_type":"html","url":"../views/src/external/stimulus.html","rt":9551},{"block":"triangular_testing","helps":0,"answer":["6"],"clicked":[["answer","clicked"],["M ","false"],["B ","false"],["J ","false"],["N ","false"],["D ","false"],["O ","false"],["K ","false"],["C ","false"],["F ","false"],["I ","false"],["H ","false"],["G ","false"],["L ","false"],["E ","false"],["A ","false"]],"correct":1,"scaffold":"none","question":"starts","scenario":"axis","graph":"triangular","condition":2,"session":"golf","experiment":"experiment","subject":"9ZMW8","internal_node_id":"0.0-9.0-5.0","time_elapsed":1200895,"trial_index":28,"trial_type":"html","url":"../views/src/external/stimulus.html","rt":16007},{"block":"triangular_testing","helps":0,"answer":["9"],"clicked":[["answer","clicked"],["M ","false"],["B ","false"],["J ","false"],["N ","false"],["D ","false"],["O ","false"],["K ","false"],["C ","false"],["F ","false"],["I ","false"],["H ","false"],["G ","false"],["L ","false"],["E ","false"],["A ","false"]],"correct":1,"scaffold":"none","question":"start+duration","scenario":"axis","graph":"triangular","condition":2,"session":"golf","experiment":"experiment","subject":"9ZMW8","internal_node_id":"0.0-9.0-0.0","time_elapsed":1221448,"trial_index":29,"trial_type":"html","url":"../views/src/external/stimulus.html","rt":19303},{"block":"triangular_testing","helps":0,"answer":["A"],"clicked":[["answer","clicked"],["M ","false"],["B ","false"],["J ","false"],["N ","false"],["D ","false"],["O ","false"],["K ","false"],["C ","false"],["F ","false"],["I ","false"],["H ","false"],["G ","false"],["L ","false"],["E ","false"],["A ","false"]],"correct":1,"scaffold":"none","question":"during+overlap","scenario":"axis","graph":"triangular","condition":2,"session":"golf","experiment":"experiment","subject":"9ZMW8","internal_node_id":"0.0-9.0-3.0","time_elapsed":1250146,"trial_index":30,"trial_type":"html","url":"../views/src/external/stimulus.html","rt":27439},{"block":"triangular_testing","helps":0,"answer":["G"],"clicked":[["answer","clicked"],["M ","false"],["B ","false"],["J ","false"],["N ","false"],["D ","false"],["O ","false"],["K ","false"],["C ","false"],["F ","false"],["I ","false"],["H ","false"],["G ","false"],["L ","false"],["E ","false"],["A ","false"]],"correct":1,"scaffold":"none","question":"meets","scenario":"axis","graph":"triangular","condition":2,"session":"golf","experiment":"experiment","subject":"9ZMW8","internal_node_id":"0.0-9.0-8.0","time_elapsed":1297703,"trial_index":31,"trial_type":"html","url":"../views/src/external/stimulus.html","rt":46294},{"block":"triangular_testing","helps":0,"answer":["F","G","M","O"],"clicked":[["answer","clicked"],["M ","false"],["B ","false"],["J ","false"],["N ","false"],["D ","false"],["O ","false"],["K ","false"],["C ","false"],["F ","false"],["I ","false"],["H ","false"],["G ","false"],["L ","false"],["E ","false"],["A ","false"]],"correct":1,"scaffold":"none","question":"before+overlap","scenario":"axis","graph":"triangular","condition":2,"session":"golf","experiment":"experiment","subject":"9ZMW8","internal_node_id":"0.0-9.0-1.0","time_elapsed":1320118,"trial_index":32,"trial_type":"html","url":"../views/src/external/stimulus.html","rt":21163},{"block":"triangular_testing","helps":0,"answer":["G"],"clicked":[["answer","clicked"],["M ","false"],["B ","false"],["J ","false"],["N ","false"],["D ","false"],["O ","false"],["K ","false"],["C ","false"],["F ","false"],["I ","false"],["H ","false"],["G ","false"],["L ","false"],["E ","false"],["A ","false"]],"correct":1,"scaffold":"none","question":"starts+finishes","scenario":"axis","graph":"triangular","condition":2,"session":"golf","experiment":"experiment","subject":"9ZMW8","internal_node_id":"0.0-9.0-9.0","time_elapsed":1329062,"trial_index":33,"trial_type":"html","url":"../views/src/external/stimulus.html","rt":7678},{"block":"triangular_testing","helps":0,"answer":["A","B","C","E","J"],"clicked":[["answer","clicked"],["M ","false"],["B ","false"],["J ","false"],["N ","false"],["D ","false"],["O ","false"],["K ","false"],["C ","false"],["F ","false"],["I ","false"],["H ","false"],["G ","false"],["L ","false"],["E ","false"],["A ","false"]],"correct":1,"scaffold":"none","question":"overlap+overlap","scenario":"axis","graph":"triangular","condition":2,"session":"golf","experiment":"experiment","subject":"9ZMW8","internal_node_id":"0.0-9.0-2.0","time_elapsed":1363734,"trial_index":34,"trial_type":"html","url":"../views/src/external/stimulus.html","rt":33407},{"block":"triangular_testing","helps":0,"answer":["F","M","O"],"clicked":[["answer","clicked"],["M ","false"],["B ","false"],["J ","false"],["N ","false"],["D ","false"],["O ","false"],["K ","false"],["C ","false"],["F ","false"],["I ","false"],["H ","false"],["G ","false"],["L ","false"],["E ","false"],["A ","false"]],"correct":1,"scaffold":"none","question":"during","scenario":"axis","graph":"triangular","condition":2,"session":"golf","experiment":"experiment","subject":"9ZMW8","internal_node_id":"0.0-9.0-7.0","time_elapsed":1383373,"trial_index":35,"trial_type":"html","url":"../views/src/external/stimulus.html","rt":18386},{"condition":2,"session":"golf","experiment":"experiment","subject":"9ZMW8","internal_node_id":"0.0-10.0","time_elapsed":1398761,"trial_index":36,"trial_type":"single-stim","block":"scenario-draw","key_press":13,"stimulus":"img/jones.png","rt":14380},{"condition":2,"session":"golf","experiment":"experiment","subject":"9ZMW8","internal_node_id":"0.0-11.0","time_elapsed":1922834,"trial_index":37,"trial_type":"html","block":"instructions_drawing","url":"../views/src/external/instructions_draw.html","rt":522825},{"block":"drawingTest","clicked":[["answer","clicked"]],"answer":["C1"],"correct":1,"scaffold":"none","question":"duration","scenario":"jones","graph":"none","condition":2,"session":"golf","experiment":"experiment","subject":"9ZMW8","internal_node_id":"0.0-12.0","time_elapsed":1973711,"trial_index":38,"trial_type":"html","url":"../views/src/external/stimulus.html","rt":49462},{"block":"drawingTest","clicked":[["answer","clicked"]],"answer":["Chris","3-4pm"],"correct":1,"scaffold":"none","question":"overlap","scenario":"jones","graph":"none","condition":2,"session":"golf","experiment":"experiment","subject":"9ZMW8","internal_node_id":"0.0-13.0","time_elapsed":2009312,"trial_index":39,"trial_type":"html","url":"../views/src/external/stimulus.html","rt":34356},{"condition":2,"session":"golf","experiment":"experiment","subject":"9ZMW8","internal_node_id":"0.0-14.0","time_elapsed":2018518,"trial_index":40,"trial_type":"survey-text","block":"demo-1","responses":"{\"Q0\":\"19\",\"Q1\":\"South Korea\"}","rt":8200},{"condition":2,"session":"golf","experiment":"experiment","subject":"9ZMW8","internal_node_id":"0.0-15.0","time_elapsed":2044956,"trial_index":41,"trial_type":"survey-multi-choice","block":"demo-2","responses":"{\"Q0\":\"Other\",\"Q1\":\"Second\",\"Q2\":\"Social Sciences (incl. CogSci)\",\"Q3\":\"Female\",\"Q4\":\"the second one (triangular)\"}","rt":25419},{"condition":2,"session":"golf","experiment":"experiment","subject":"9ZMW8","internal_node_id":"0.0-16.0","time_elapsed":2069666,"trial_index":42,"trial_type":"html","block":"debrief","url":"../views/src/external/debrief.html","rt":23469}],"__v":0}
{"_id":{"$oid":"58c2e52a039350000489262a"},"data":[{"condition":0,"session":"golf","experiment":"reverse","subject":"8LQCF","internal_node_id":"0.0-0.0","time_elapsed":53300,"trial_index":0,"trial_type":"single-stim","block":"phone","key_press":13,"stimulus":"img/phone.png","rt":53293},{"condition":0,"session":"golf","experiment":"reverse","subject":"8LQCF","internal_node_id":"0.0-1.0","time_elapsed":75311,"trial_index":1,"trial_type":"html","block":"consent","url":"../views/src/external/consent.html","rt":20823},{"condition":0,"session":"golf","experiment":"reverse","subject":"8LQCF","internal_node_id":"0.0-2.0","time_elapsed":82720,"trial_index":2,"trial_type":"survey-text","block":"codes","responses":"{\"Q0\":\"GOLF\",\"Q1\":\"0\"}","rt":6402},{"condition":0,"session":"golf","experiment":"reverse","subject":"8LQCF","internal_node_id":"0.0-3.0","time_elapsed":94862,"trial_index":3,"trial_type":"html","block":"instructions_lab","url":"../views/src/external/instructions_lab.html","rt":10911},{"condition":0,"session":"golf","experiment":"reverse","subject":"8LQCF","internal_node_id":"0.0-4.0","time_elapsed":101555,"trial_index":4,"trial_type":"single-stim","block":"scenario-two","key_press":13,"stimulus":"img/longmire.png","rt":5690},{"block":"triangular_scaffolded","helps":0,"clicked":[["answer","clicked"],["A ","false"],["M ","false"],["D ","false"],["N ","false"],["B ","false"],["F ","false"],["H ","false"],["G ","false"],["O ","false"],["C ","false"],["J ","false"],["I ","false"],["E ","false"],["L ","false"],["K ","false"]],"answer":["C","D","L"],"correct":1,"scaffold":"none","question":"start","scenario":"longmire","graph":"triangular","condition":0,"session":"golf","experiment":"reverse","subject":"8LQCF","internal_node_id":"0.0-5.0-0.0","time_elapsed":120261,"trial_index":5,"trial_type":"html","url":"../views/src/external/stimulus.html","rt":17254},{"block":"triangular_scaffolded","helps":0,"clicked":[["answer","clicked"],["A ","false"],["M ","false"],["D ","false"],["N ","false"],["B ","false"],["F ","false"],["H ","false"],["G ","false"],["O ","false"],["C ","false"],["J ","false"],["I ","false"],["E ","false"],["L ","false"],["K ","false"]],"answer":["M","N"],"correct":0,"scaffold":"none","question":"end","scenario":"longmire","graph":"triangular","condition":0,"session":"golf","experiment":"reverse","subject":"8LQCF","internal_node_id":"0.0-5.0-1.0","time_elapsed":139227,"trial_index":6,"trial_type":"html","url":"../views/src/external/stimulus.html","rt":17715},{"block":"triangular_scaffolded","helps":0,"clicked":[["answer","clicked"],["A ","false"],["M ","false"],["D ","false"],["N ","false"],["B ","false"],["F ","false"],["H ","false"],["G ","false"],["O ","false"],["C ","false"],["J ","false"],["I ","false"],["E ","false"],["L ","false"],["K ","false"]],"answer":["G","O"],"correct":1,"scaffold":"none","question":"duration","scenario":"longmire","graph":"triangular","condition":0,"session":"golf","experiment":"reverse","subject":"8LQCF","internal_node_id":"0.0-5.0-2.0","time_elapsed":151564,"trial_index":7,"trial_type":"html","url":"../views/src/external/stimulus.html","rt":11084},{"block":"triangular_scaffolded","helps":0,"clicked":[["answer","clicked"],["A ","false"],["M ","false"],["D ","false"],["N ","false"],["B ","false"],["F ","false"],["H ","false"],["G ","false"],["O ","false"],["C ","false"],["J ","false"],["I ","false"],["E ","false"],["L ","false"],["K ","false"]],"answer":["1"],"correct":1,"scaffold":"none","question":"midpoint","scenario":"longmire","graph":"triangular","condition":0,"session":"golf","experiment":"reverse","subject":"8LQCF","internal_node_id":"0.0-5.0-3.0","time_elapsed":167018,"trial_index":8,"trial_type":"html","url":"../views/src/external/stimulus.html","rt":14195},{"block":"triangular_scaffolded","helps":0,"clicked":[["answer","clicked"],["A ","false"],["M ","false"],["D ","false"],["N ","false"],["B ","false"],["F ","false"],["H ","false"],["G ","false"],["O ","false"],["C ","false"],["J ","false"],["I ","false"],["E ","false"],["L ","false"],["K ","false"]],"answer":["A"],"correct":1,"scaffold":"none","question":"start+overlap","scenario":"longmire","graph":"triangular","condition":0,"session":"golf","experiment":"reverse","subject":"8LQCF","internal_node_id":"0.0-5.0-4.0","time_elapsed":185043,"trial_index":9,"trial_type":"html","url":"../views/src/external/stimulus.html","rt":16762},{"block":"triangular_testing","helps":0,"answer":["C","E","G","I","K","O"],"clicked":[["answer","clicked"],["A ","false"],["M ","false"],["D ","false"],["N ","false"],["B ","false"],["F ","false"],["H ","false"],["G ","false"],["O ","false"],["C ","false"],["J ","false"],["I ","false"],["E ","false"],["L ","false"],["K ","false"]],"correct":0,"scaffold":"none","question":"overlap+overlap","scenario":"longmire","graph":"triangular","condition":0,"session":"golf","experiment":"reverse","subject":"8LQCF","internal_node_id":"0.0-6.0-2.0","time_elapsed":246831,"trial_index":10,"trial_type":"html","url":"../views/src/external/stimulus.html","rt":60533},{"block":"triangular_testing","helps":0,"answer":[],"clicked":[["answer","clicked"],["A ","false"],["M ","false"],["D ","false"],["N ","false"],["B ","false"],["F ","false"],["H ","false"],["G ","false"],["O ","false"],["C ","false"],["J ","false"],["I ","false"],["E ","false"],["L ","false"],["K ","false"]],"correct":0,"scaffold":"none","question":"starts+finishes","scenario":"longmire","graph":"triangular","condition":0,"session":"golf","experiment":"reverse","subject":"8LQCF","internal_node_id":"0.0-6.0-9.0","time_elapsed":287224,"trial_index":11,"trial_type":"html","url":"../views/src/external/stimulus.html","rt":39049},{"block":"triangular_testing","helps":0,"answer":["B","C","D","F"],"clicked":[["answer","clicked"],["A ","false"],["M ","false"],["D ","false"],["N ","false"],["B ","false"],["F ","false"],["H ","false"],["G ","false"],["O ","false"],["C ","false"],["J ","false"],["I ","false"],["E ","false"],["L ","false"],["K ","false"]],"correct":0,"scaffold":"none","question":"during","scenario":"longmire","graph":"triangular","condition":0,"session":"golf","experiment":"reverse","subject":"8LQCF","internal_node_id":"0.0-6.0-7.0","time_elapsed":324173,"trial_index":12,"trial_type":"html","url":"../views/src/external/stimulus.html","rt":35640},{"block":"triangular_testing","helps":0,"answer":["6","8"],"clicked":[["answer","clicked"],["A ","false"],["M ","false"],["D ","false"],["N ","false"],["B ","false"],["F ","false"],["H ","false"],["G ","false"],["O ","false"],["C ","false"],["J ","false"],["I ","false"],["E ","false"],["L ","false"],["K ","false"]],"correct":1,"scaffold":"none","question":"starts","scenario":"longmire","graph":"triangular","condition":0,"session":"golf","experiment":"reverse","subject":"8LQCF","internal_node_id":"0.0-6.0-5.0","time_elapsed":346149,"trial_index":13,"trial_type":"html","url":"../views/src/external/stimulus.html","rt":20731},{"block":"triangular_testing","helps":0,"answer":["4","5"],"clicked":[["answer","clicked"],["A ","false"],["M ","false"],["D ","false"],["N ","false"],["B ","false"],["F ","false"],["H ","false"],["G ","false"],["O ","false"],["C ","false"],["J ","false"],["I ","false"],["E ","false"],["L ","false"],["K ","false"]],"correct":1,"scaffold":"none","question":"finishes","scenario":"longmire","graph":"triangular","condition":0,"session":"golf","experiment":"reverse","subject":"8LQCF","internal_node_id":"0.0-6.0-6.0","time_elapsed":366661,"trial_index":14,"trial_type":"html","url":"../views/src/external/stimulus.html","rt":19255},{"block":"triangular_testing","helps":0,"answer":["L"],"clicked":[["answer","clicked"],["A ","false"],["M ","false"],["D ","false"],["N ","false"],["B ","false"],["F ","false"],["H ","false"],["G ","false"],["O ","false"],["C ","false"],["J ","false"],["I ","false"],["E ","false"],["L ","false"],["K ","false"]],"correct":0,"scaffold":"none","question":"during+overlap","scenario":"longmire","graph":"triangular","condition":0,"session":"golf","experiment":"reverse","subject":"8LQCF","internal_node_id":"0.0-6.0-3.0","time_elapsed":405963,"trial_index":15,"trial_type":"html","url":"../views/src/external/stimulus.html","rt":38051},{"block":"triangular_testing","helps":0,"answer":["A","B","C","D","E","F","G","I"],"clicked":[["answer","clicked"],["A ","false"],["M ","false"],["D ","false"],["N ","false"],["B ","false"],["F ","false"],["H ","false"],["G ","false"],["O ","false"],["C ","false"],["J ","false"],["I ","false"],["E ","false"],["L ","false"],["K ","false"]],"correct":0,"scaffold":"none","question":"before+overlap","scenario":"longmire","graph":"triangular","condition":0,"session":"golf","experiment":"reverse","subject":"8LQCF","internal_node_id":"0.0-6.0-1.0","time_elapsed":436977,"trial_index":16,"trial_type":"html","url":"../views/src/external/stimulus.html","rt":29762},{"block":"triangular_testing","helps":0,"answer":["A","B","D","F"],"clicked":[["answer","clicked"],["A ","false"],["M ","false"],["D ","false"],["N ","false"],["B ","false"],["F ","false"],["H ","false"],["G ","false"],["O ","false"],["C ","false"],["J ","false"],["I ","false"],["E ","false"],["L ","false"],["K ","false"]],"correct":1,"scaffold":"none","question":"start+duration","scenario":"longmire","graph":"triangular","condition":0,"session":"golf","experiment":"reverse","subject":"8LQCF","internal_node_id":"0.0-6.0-0.0","time_elapsed":463118,"trial_index":17,"trial_type":"html","url":"../views/src/external/stimulus.html","rt":24889},{"block":"triangular_testing","helps":0,"answer":["G","O"],"clicked":[["answer","clicked"],["A ","false"],["M ","false"],["D ","false"],["N ","false"],["B ","false"],["F ","false"],["H ","false"],["G ","false"],["O ","false"],["C ","false"],["J ","false"],["I ","false"],["E ","false"],["L ","false"],["K ","false"]],"correct":1,"scaffold":"none","question":"contain+duration","scenario":"longmire","graph":"triangular","condition":0,"session":"golf","experiment":"reverse","subject":"8LQCF","internal_node_id":"0.0-6.0-4.0","time_elapsed":480247,"trial_index":18,"trial_type":"html","url":"../views/src/external/stimulus.html","rt":15825},{"block":"triangular_testing","helps":0,"answer":["O"],"clicked":[["answer","clicked"],["A ","false"],["M ","false"],["D ","false"],["N ","false"],["B ","false"],["F ","false"],["H ","false"],["G ","false"],["O ","false"],["C ","false"],["J ","false"],["I ","false"],["E ","false"],["L ","false"],["K ","false"]],"correct":1,"scaffold":"none","question":"meets","scenario":"longmire","graph":"triangular","condition":0,"session":"golf","experiment":"reverse","subject":"8LQCF","internal_node_id":"0.0-6.0-8.0","time_elapsed":508026,"trial_index":19,"trial_type":"html","url":"../views/src/external/stimulus.html","rt":26536},{"condition":0,"session":"golf","experiment":"reverse","subject":"8LQCF","internal_node_id":"0.0-7.0","time_elapsed":517383,"trial_index":20,"trial_type":"single-stim","block":"scenario-one","key_press":13,"stimulus":"img/axis.png","rt":8351},{"block":"linear_scaffolded","helps":0,"clicked":[["answer","clicked"],["M ","false"],["B ","false"],["J ","false"],["N ","false"],["D ","false"],["O ","false"],["K ","false"],["C ","false"],["F ","false"],["I ","false"],["H ","false"],["G ","false"],["L ","false"],["E ","false"],["A ","false"]],"answer":["H","O"],"correct":1,"scaffold":"none","question":"start","scenario":"axis","graph":"linear","condition":0,"session":"golf","experiment":"reverse","subject":"8LQCF","internal_node_id":"0.0-8.0-0.0","time_elapsed":530882,"trial_index":21,"trial_type":"html","url":"../views/src/external/stimulus.html","rt":12235},{"block":"linear_scaffolded","helps":0,"clicked":[["answer","clicked"],["M ","false"],["B ","false"],["J ","false"],["N ","false"],["D ","false"],["O ","false"],["K ","false"],["C ","false"],["F ","false"],["I ","false"],["H ","false"],["G ","false"],["L ","false"],["E ","false"],["A ","false"]],"answer":["4"],"correct":1,"scaffold":"none","question":"end","scenario":"axis","graph":"linear","condition":0,"session":"golf","experiment":"reverse","subject":"8LQCF","internal_node_id":"0.0-8.0-1.0","time_elapsed":541002,"trial_index":22,"trial_type":"html","url":"../views/src/external/stimulus.html","rt":8872},{"block":"linear_scaffolded","helps":0,"clicked":[["answer","clicked"],["M ","false"],["B ","false"],["J ","false"],["N ","false"],["D ","false"],["O ","false"],["K ","false"],["C ","false"],["F ","false"],["I ","false"],["H ","false"],["G ","false"],["L ","false"],["E ","false"],["A ","false"]],"answer":["A","C","E","F","G","H","I","K","L"],"correct":1,"scaffold":"none","question":"duration","scenario":"axis","graph":"linear","condition":0,"session":"golf","experiment":"reverse","subject":"8LQCF","internal_node_id":"0.0-8.0-2.0","time_elapsed":584971,"trial_index":23,"trial_type":"html","url":"../views/src/external/stimulus.html","rt":42711},{"block":"linear_scaffolded","helps":0,"clicked":[["answer","clicked"],["M ","false"],["B ","false"],["J ","false"],["N ","false"],["D ","false"],["O ","false"],["K ","false"],["C ","false"],["F ","false"],["I ","false"],["H ","false"],["G ","false"],["L ","false"],["E ","false"],["A ","false"]],"answer":["8"],"correct":1,"scaffold":"none","question":"midpoint","scenario":"axis","graph":"linear","condition":0,"session":"golf","experiment":"reverse","subject":"8LQCF","internal_node_id":"0.0-8.0-3.0","time_elapsed":606915,"trial_index":24,"trial_type":"html","url":"../views/src/external/stimulus.html","rt":20684},{"block":"linear_scaffolded","helps":0,"clicked":[["answer","clicked"],["M ","false"],["B ","false"],["J ","false"],["N ","false"],["D ","false"],["O ","false"],["K ","false"],["C ","false"],["F ","false"],["I ","false"],["H ","false"],["G ","false"],["L ","false"],["E ","false"],["A ","false"]],"answer":["7"],"correct":1,"scaffold":"none","question":"start+overlap","scenario":"axis","graph":"linear","condition":0,"session":"golf","experiment":"reverse","subject":"8LQCF","internal_node_id":"0.0-8.0-4.0","time_elapsed":630868,"trial_index":25,"trial_type":"html","url":"../views/src/external/stimulus.html","rt":22578},{"block":"linear_testing","helps":0,"clicked":[["answer","clicked"],["M ","false"],["B ","false"],["J ","false"],["N ","false"],["D ","false"],["O ","false"],["K ","false"],["C ","false"],["F ","false"],["I ","false"],["H ","false"],["G ","false"],["L ","false"],["E ","false"],["A ","false"]],"answer":["F","M"],"correct":0,"scaffold":"none","question":"before+overlap","scenario":"axis","graph":"linear","condition":0,"session":"golf","experiment":"reverse","subject":"8LQCF","internal_node_id":"0.0-9.0-1.0","time_elapsed":660004,"trial_index":26,"trial_type":"html","url":"../views/src/external/stimulus.html","rt":27889},{"block":"linear_testing","helps":0,"clicked":[["answer","clicked"],["M ","false"],["B ","false"],["J ","false"],["N ","false"],["D ","false"],["O ","false"],["K ","false"],["C ","false"],["F ","false"],["I ","false"],["H ","false"],["G ","false"],["L ","false"],["E ","false"],["A ","false"]],"answer":["F","M","O"],"correct":1,"scaffold":"none","question":"during","scenario":"axis","graph":"linear","condition":0,"session":"golf","experiment":"reverse","subject":"8LQCF","internal_node_id":"0.0-9.0-7.0","time_elapsed":678815,"trial_index":27,"trial_type":"html","url":"../views/src/external/stimulus.html","rt":17560},{"block":"linear_testing","helps":0,"clicked":[["answer","clicked"],["M ","false"],["B ","false"],["J ","false"],["N ","false"],["D ","false"],["O ","false"],["K ","false"],["C ","false"],["F ","false"],["I ","false"],["H ","false"],["G ","false"],["L ","false"],["E ","false"],["A ","false"]],"answer":["F"],"correct":0,"scaffold":"none","question":"meets","scenario":"axis","graph":"linear","condition":0,"session":"golf","experiment":"reverse","subject":"8LQCF","internal_node_id":"0.0-9.0-8.0","time_elapsed":698256,"trial_index":28,"trial_type":"html","url":"../views/src/external/stimulus.html","rt":18189},{"block":"linear_testing","helps":0,"clicked":[["answer","clicked"],["M ","false"],["B ","false"],["J ","false"],["N ","false"],["D ","false"],["O ","false"],["K ","false"],["C ","false"],["F ","false"],["I ","false"],["H ","false"],["G ","false"],["L ","false"],["E ","false"],["A ","false"]],"answer":["6"],"correct":1,"scaffold":"none","question":"starts","scenario":"axis","graph":"linear","condition":0,"session":"golf","experiment":"reverse","subject":"8LQCF","internal_node_id":"0.0-9.0-5.0","time_elapsed":725311,"trial_index":29,"trial_type":"html","url":"../views/src/external/stimulus.html","rt":25800},{"block":"linear_testing","helps":0,"clicked":[["answer","clicked"],["M ","false"],["B ","false"],["J ","false"],["N ","false"],["D ","false"],["O ","false"],["K ","false"],["C ","false"],["F ","false"],["I ","false"],["H ","false"],["G ","false"],["L ","false"],["E ","false"],["A ","false"]],"answer":["G","O"],"correct":1,"scaffold":"none","question":"finishes","scenario":"axis","graph":"linear","condition":0,"session":"golf","experiment":"reverse","subject":"8LQCF","internal_node_id":"0.0-9.0-6.0","time_elapsed":738881,"trial_index":30,"trial_type":"html","url":"../views/src/external/stimulus.html","rt":12316},{"block":"linear_testing","helps":0,"clicked":[["answer","clicked"],["M ","false"],["B ","false"],["J ","false"],["N ","false"],["D ","false"],["O ","false"],["K ","false"],["C ","false"],["F ","false"],["I ","false"],["H ","false"],["G ","false"],["L ","false"],["E ","false"],["A ","false"]],"answer":["9"],"correct":1,"scaffold":"none","question":"start+duration","scenario":"axis","graph":"linear","condition":0,"session":"golf","experiment":"reverse","subject":"8LQCF","internal_node_id":"0.0-9.0-0.0","time_elapsed":753660,"trial_index":31,"trial_type":"html","url":"../views/src/external/stimulus.html","rt":13529},{"block":"linear_testing","helps":0,"clicked":[["answer","clicked"],["M ","false"],["B ","false"],["J ","false"],["N ","false"],["D ","false"],["O ","false"],["K ","false"],["C ","false"],["F ","false"],["I ","false"],["H ","false"],["G ","false"],["L ","false"],["E ","false"],["A ","false"]],"answer":["A"],"correct":1,"scaffold":"none","question":"during+overlap","scenario":"axis","graph":"linear","condition":0,"session":"golf","experiment":"reverse","subject":"8LQCF","internal_node_id":"0.0-9.0-3.0","time_elapsed":772117,"trial_index":32,"trial_type":"html","url":"../views/src/external/stimulus.html","rt":17207},{"block":"linear_testing","helps":0,"clicked":[["answer","clicked"],["M ","false"],["B ","false"],["J ","false"],["N ","false"],["D ","false"],["O ","false"],["K ","false"],["C ","false"],["F ","false"],["I ","false"],["H ","false"],["G ","false"],["L ","false"],["E ","false"],["A ","false"]],"answer":["D","N","O"],"correct":0,"scaffold":"none","question":"contain+duration","scenario":"axis","graph":"linear","condition":0,"session":"golf","experiment":"reverse","subject":"8LQCF","internal_node_id":"0.0-9.0-4.0","time_elapsed":792121,"trial_index":33,"trial_type":"html","url":"../views/src/external/stimulus.html","rt":18749},{"block":"linear_testing","helps":0,"clicked":[["answer","clicked"],["M ","false"],["B ","false"],["J ","false"],["N ","false"],["D ","false"],["O ","false"],["K ","false"],["C ","false"],["F ","false"],["I ","false"],["H ","false"],["G ","false"],["L ","false"],["E ","false"],["A ","false"]],"answer":["G"],"correct":1,"scaffold":"none","question":"starts+finishes","scenario":"axis","graph":"linear","condition":0,"session":"golf","experiment":"reverse","subject":"8LQCF","internal_node_id":"0.0-9.0-9.0","time_elapsed":802144,"trial_index":34,"trial_type":"html","url":"../views/src/external/stimulus.html","rt":8755},{"block":"linear_testing","helps":0,"clicked":[["answer","clicked"],["M ","false"],["B ","false"],["J ","false"],["N ","false"],["D ","false"],["O ","false"],["K ","false"],["C ","false"],["F ","false"],["I ","false"],["H ","false"],["G ","false"],["L ","false"],["E ","false"],["A ","false"]],"answer":["A","B","C","E","F","J"],"correct":0,"scaffold":"none","question":"overlap+overlap","scenario":"axis","graph":"linear","condition":0,"session":"golf","experiment":"reverse","subject":"8LQCF","internal_node_id":"0.0-9.0-2.0","time_elapsed":834154,"trial_index":35,"trial_type":"html","url":"../views/src/external/stimulus.html","rt":30760},{"condition":0,"session":"golf","experiment":"reverse","subject":"8LQCF","internal_node_id":"0.0-10.0","time_elapsed":843606,"trial_index":36,"trial_type":"single-stim","block":"scenario-draw","key_press":13,"stimulus":"img/jones.png","rt":8447},{"condition":0,"session":"golf","experiment":"reverse","subject":"8LQCF","internal_node_id":"0.0-11.0","time_elapsed":1575067,"trial_index":37,"trial_type":"html","block":"instructions_drawing","url":"../views/src/external/instructions_draw.html","rt":730289},{"block":"drawingTest","clicked":[["answer","clicked"]],"answer":[],"correct":0,"scaffold":"none","question":"duration","scenario":"jones","graph":"none","condition":0,"session":"golf","experiment":"reverse","subject":"8LQCF","internal_node_id":"0.0-12.0","time_elapsed":1608740,"trial_index":38,"trial_type":"html","url":"../views/src/external/stimulus.html","rt":32284},{"block":"drawingTest","clicked":[["answer","clicked"]],"answer":["Chris","1-3pm","3-4pm"],"correct":0,"scaffold":"none","question":"overlap","scenario":"jones","graph":"none","condition":0,"session":"golf","experiment":"reverse","subject":"8LQCF","internal_node_id":"0.0-13.0","time_elapsed":1660530,"trial_index":39,"trial_type":"html","url":"../views/src/external/stimulus.html","rt":50525},{"condition":0,"session":"golf","experiment":"reverse","subject":"8LQCF","internal_node_id":"0.0-14.0","time_elapsed":1672649,"trial_index":40,"trial_type":"survey-text","block":"demo-1","responses":"{\"Q0\":\"25\",\"Q1\":\"United States\"}","rt":11110},{"condition":0,"session":"golf","experiment":"reverse","subject":"8LQCF","internal_node_id":"0.0-15.0","time_elapsed":1688318,"trial_index":41,"trial_type":"survey-multi-choice","block":"demo-2","responses":"{\"Q0\":\"English\",\"Q1\":\"Fifth\",\"Q2\":\"Social Sciences (incl. CogSci)\",\"Q3\":\"Female\",\"Q4\":\"the first one (linear\"}","rt":14654},{"condition":0,"session":"golf","experiment":"reverse","subject":"8LQCF","internal_node_id":"0.0-16.0","time_elapsed":1690850,"trial_index":42,"trial_type":"html","block":"debrief","url":"../views/src/external/debrief.html","rt":1257}],"__v":0}
{"_id":{"$oid":"58c2e55a039350000489262b"},"data":[{"condition":4,"session":"golf","experiment":"experiment","subject":"MFPR7","internal_node_id":"0.0-0.0","time_elapsed":98302,"trial_index":0,"trial_type":"single-stim","block":"phone","key_press":13,"stimulus":"img/phone.png","rt":98298},{"condition":4,"session":"golf","experiment":"experiment","subject":"MFPR7","internal_node_id":"0.0-1.0","time_elapsed":104163,"trial_index":1,"trial_type":"html","block":"consent","url":"../views/src/external/consent.html","rt":4602},{"condition":4,"session":"golf","experiment":"experiment","subject":"MFPR7","internal_node_id":"0.0-2.0","time_elapsed":114994,"trial_index":2,"trial_type":"survey-text","block":"codes","responses":"{\"Q0\":\"GOLF\",\"Q1\":\"4\"}","rt":9820},{"condition":4,"session":"golf","experiment":"experiment","subject":"MFPR7","internal_node_id":"0.0-3.0","time_elapsed":124819,"trial_index":3,"trial_type":"html","block":"instructions_lab","url":"../views/src/external/instructions_lab.html","rt":8663},{"condition":4,"session":"golf","experiment":"experiment","subject":"MFPR7","internal_node_id":"0.0-4.0","time_elapsed":134941,"trial_index":4,"trial_type":"single-stim","block":"scenario-one","key_press":13,"stimulus":"img/longmire.png","rt":9120},{"block":"linear_scaffolded","helps":0,"clicked":[["answer","clicked"],["A ","false"],["M ","false"],["D ","false"],["N ","false"],["B ","false"],["F ","false"],["H ","false"],["G ","false"],["O ","false"],["C ","false"],["J ","false"],["I ","false"],["E ","false"],["L ","false"],["K ","false"]],"answer":["C","D","L"],"correct":1,"scaffold":"show-interactive","question":"start","scenario":"longmire","graph":"linear","condition":4,"session":"golf","experiment":"experiment","subject":"MFPR7","internal_node_id":"0.0-5.0-0.0","time_elapsed":159346,"trial_index":5,"trial_type":"html","url":"../views/src/external/stimulus.html","rt":22903},{"block":"linear_scaffolded","helps":0,"clicked":[["answer","clicked"],["A ","false"],["M ","false"],["D ","false"],["N ","false"],["B ","false"],["F ","false"],["H ","false"],["G ","false"],["O ","false"],["C ","false"],["J ","false"],["I ","false"],["E ","false"],["L ","false"],["K ","false"]],"answer":["H","J","K","L","M","N","O"],"correct":1,"scaffold":"show-interactive","question":"end","scenario":"longmire","graph":"linear","condition":4,"session":"golf","experiment":"experiment","subject":"MFPR7","internal_node_id":"0.0-5.0-1.0","time_elapsed":210359,"trial_index":6,"trial_type":"html","url":"../views/src/external/stimulus.html","rt":49750},{"block":"linear_scaffolded","helps":0,"clicked":[["answer","clicked"],["A ","false"],["M ","false"],["D ","false"],["N ","false"],["B ","false"],["F ","false"],["H ","false"],["G ","false"],["O ","false"],["C ","false"],["J ","false"],["I ","false"],["E ","false"],["L ","false"],["K ","false"]],"answer":["G","O"],"correct":1,"scaffold":"show-interactive","question":"duration","scenario":"longmire","graph":"linear","condition":4,"session":"golf","experiment":"experiment","subject":"MFPR7","internal_node_id":"0.0-5.0-2.0","time_elapsed":234961,"trial_index":7,"trial_type":"html","url":"../views/src/external/stimulus.html","rt":23343},{"block":"linear_scaffolded","helps":0,"clicked":[["answer","clicked"],["A ","false"],["M ","false"],["D ","false"],["N ","false"],["B ","false"],["F ","false"],["H ","false"],["G ","false"],["O ","false"],["C ","false"],["J ","false"],["I ","false"],["E ","false"],["L ","false"],["K ","false"]],"answer":["1"],"correct":1,"scaffold":"show-interactive","question":"midpoint","scenario":"longmire","graph":"linear","condition":4,"session":"golf","experiment":"experiment","subject":"MFPR7","internal_node_id":"0.0-5.0-3.0","time_elapsed":250930,"trial_index":8,"trial_type":"html","url":"../views/src/external/stimulus.html","rt":14710},{"block":"linear_scaffolded","helps":0,"clicked":[["answer","clicked"],["A ","false"],["M ","false"],["D ","false"],["N ","false"],["B ","false"],["F ","false"],["H ","false"],["G ","false"],["O ","false"],["C ","false"],["J ","false"],["I ","false"],["E ","false"],["L ","false"],["K ","false"]],"answer":["A"],"correct":1,"scaffold":"show-interactive","question":"start+overlap","scenario":"longmire","graph":"linear","condition":4,"session":"golf","experiment":"experiment","subject":"MFPR7","internal_node_id":"0.0-5.0-4.0","time_elapsed":261106,"trial_index":9,"trial_type":"html","url":"../views/src/external/stimulus.html","rt":8926},{"block":"linear_testing","helps":0,"clicked":[["answer","clicked"],["A ","false"],["M ","false"],["D ","false"],["N ","false"],["B ","false"],["F ","false"],["H ","false"],["G ","false"],["O ","false"],["C ","false"],["J ","false"],["I ","false"],["E ","false"],["L ","false"],["K ","false"]],"answer":["C","D","F"],"correct":0,"scaffold":"none","question":"during","scenario":"longmire","graph":"linear","condition":4,"session":"golf","experiment":"experiment","subject":"MFPR7","internal_node_id":"0.0-6.0-7.0","time_elapsed":298580,"trial_index":10,"trial_type":"html","url":"../views/src/external/stimulus.html","rt":36225},{"block":"linear_testing","helps":0,"clicked":[["answer","clicked"],["A ","false"],["M ","false"],["D ","false"],["N ","false"],["B ","false"],["F ","false"],["H ","false"],["G ","false"],["O ","false"],["C ","false"],["J ","false"],["I ","false"],["E ","false"],["L ","false"],["K ","false"]],"answer":["A","B","C","D","F","I"],"correct":1,"scaffold":"none","question":"before+overlap","scenario":"longmire","graph":"linear","condition":4,"session":"golf","experiment":"experiment","subject":"MFPR7","internal_node_id":"0.0-6.0-1.0","time_elapsed":362700,"trial_index":11,"trial_type":"html","url":"../views/src/external/stimulus.html","rt":62869},{"block":"linear_testing","helps":0,"clicked":[["answer","clicked"],["A ","false"],["M ","false"],["D ","false"],["N ","false"],["B ","false"],["F ","false"],["H ","false"],["G ","false"],["O ","false"],["C ","false"],["J ","false"],["I ","false"],["E ","false"],["L ","false"],["K ","false"]],"answer":["4","5"],"correct":1,"scaffold":"none","question":"finishes","scenario":"longmire","graph":"linear","condition":4,"session":"golf","experiment":"experiment","subject":"MFPR7","internal_node_id":"0.0-6.0-6.0","time_elapsed":392239,"trial_index":12,"trial_type":"html","url":"../views/src/external/stimulus.html","rt":28171},{"block":"linear_testing","helps":0,"clicked":[["answer","clicked"],["A ","false"],["M ","false"],["D ","false"],["N ","false"],["B ","false"],["F ","false"],["H ","false"],["G ","false"],["O ","false"],["C ","false"],["J ","false"],["I ","false"],["E ","false"],["L ","false"],["K ","false"]],"answer":["G","O"],"correct":1,"scaffold":"none","question":"contain+duration","scenario":"longmire","graph":"linear","condition":4,"session":"golf","experiment":"experiment","subject":"MFPR7","internal_node_id":"0.0-6.0-4.0","time_elapsed":431611,"trial_index":13,"trial_type":"html","url":"../views/src/external/stimulus.html","rt":38105},{"block":"linear_testing","helps":0,"clicked":[["answer","clicked"],["A ","false"],["M ","false"],["D ","false"],["N ","false"],["B ","false"],["F ","false"],["H ","false"],["G ","false"],["O ","false"],["C ","false"],["J ","false"],["I ","false"],["E ","false"],["L ","false"],["K ","false"]],"answer":["6","8"],"correct":1,"scaffold":"none","question":"starts","scenario":"longmire","graph":"linear","condition":4,"session":"golf","experiment":"experiment","subject":"MFPR7","internal_node_id":"0.0-6.0-5.0","time_elapsed":460056,"trial_index":14,"trial_type":"html","url":"../views/src/external/stimulus.html","rt":27180},{"block":"linear_testing","helps":0,"clicked":[["answer","clicked"],["A ","false"],["M ","false"],["D ","false"],["N ","false"],["B ","false"],["F ","false"],["H ","false"],["G ","false"],["O ","false"],["C ","false"],["J ","false"],["I ","false"],["E ","false"],["L ","false"],["K ","false"]],"answer":["A","B","D","F"],"correct":1,"scaffold":"none","question":"start+duration","scenario":"longmire","graph":"linear","condition":4,"session":"golf","experiment":"experiment","subject":"MFPR7","internal_node_id":"0.0-6.0-0.0","time_elapsed":495470,"trial_index":15,"trial_type":"html","url":"../views/src/external/stimulus.html","rt":34165},{"block":"linear_testing","helps":0,"clicked":[["answer","clicked"],["A ","false"],["M ","false"],["D ","false"],["N ","false"],["B ","false"],["F ","false"],["H ","false"],["G ","false"],["O ","false"],["C ","false"],["J ","false"],["I ","false"],["E ","false"],["L ","false"],["K ","false"]],"answer":["O"],"correct":1,"scaffold":"none","question":"meets","scenario":"longmire","graph":"linear","condition":4,"session":"golf","experiment":"experiment","subject":"MFPR7","internal_node_id":"0.0-6.0-8.0","time_elapsed":517499,"trial_index":16,"trial_type":"html","url":"../views/src/external/stimulus.html","rt":20733},{"block":"linear_testing","helps":0,"clicked":[["answer","clicked"],["A ","false"],["M ","false"],["D ","false"],["N ","false"],["B ","false"],["F ","false"],["H ","false"],["G ","false"],["O ","false"],["C ","false"],["J ","false"],["I ","false"],["E ","false"],["L ","false"],["K ","false"]],"answer":["A","M","N"],"correct":1,"scaffold":"none","question":"overlap+overlap","scenario":"longmire","graph":"linear","condition":4,"session":"golf","experiment":"experiment","subject":"MFPR7","internal_node_id":"0.0-6.0-2.0","time_elapsed":571605,"trial_index":17,"trial_type":"html","url":"../views/src/external/stimulus.html","rt":52852},{"block":"linear_testing","helps":0,"clicked":[["answer","clicked"],["A ","false"],["M ","false"],["D ","false"],["N ","false"],["B ","false"],["F ","false"],["H ","false"],["G ","false"],["O ","false"],["C ","false"],["J ","false"],["I ","false"],["E ","false"],["L ","false"],["K ","false"]],"answer":["K","L"],"correct":1,"scaffold":"none","question":"during+overlap","scenario":"longmire","graph":"linear","condition":4,"session":"golf","experiment":"experiment","subject":"MFPR7","internal_node_id":"0.0-6.0-3.0","time_elapsed":604240,"trial_index":18,"trial_type":"html","url":"../views/src/external/stimulus.html","rt":31363},{"block":"linear_testing","helps":0,"clicked":[["answer","clicked"],["A ","false"],["M ","false"],["D ","false"],["N ","false"],["B ","false"],["F ","false"],["H ","false"],["G ","false"],["O ","false"],["C ","false"],["J ","false"],["I ","false"],["E ","false"],["L ","false"],["K ","false"]],"answer":["C"],"correct":1,"scaffold":"none","question":"starts+finishes","scenario":"longmire","graph":"linear","condition":4,"session":"golf","experiment":"experiment","subject":"MFPR7","internal_node_id":"0.0-6.0-9.0","time_elapsed":628169,"trial_index":19,"trial_type":"html","url":"../views/src/external/stimulus.html","rt":22513},{"condition":4,"session":"golf","experiment":"experiment","subject":"MFPR7","internal_node_id":"0.0-7.0","time_elapsed":641293,"trial_index":20,"trial_type":"single-stim","block":"scenario-two","key_press":13,"stimulus":"img/axis.png","rt":12119},{"block":"triangular_scaffolded","helps":0,"clicked":[["answer","clicked"],["M ","false"],["B ","false"],["J ","false"],["N ","false"],["D ","false"],["O ","false"],["K ","false"],["C ","false"],["F ","false"],["I ","false"],["H ","false"],["G ","false"],["L ","false"],["E ","false"],["A ","false"]],"answer":["H","O"],"correct":1,"scaffold":"show-interactive","question":"start","scenario":"axis","graph":"triangular","condition":4,"session":"golf","experiment":"experiment","subject":"MFPR7","internal_node_id":"0.0-8.0-0.0","time_elapsed":727141,"trial_index":21,"trial_type":"html","url":"../views/src/external/stimulus.html","rt":84584},{"block":"triangular_scaffolded","helps":0,"clicked":[["answer","clicked"],["M ","false"],["B ","false"],["J ","false"],["N ","false"],["D ","false"],["O ","false"],["K ","false"],["C ","false"],["F ","false"],["I ","false"],["H ","false"],["G ","false"],["L ","false"],["E ","false"],["A ","false"]],"answer":["4"],"correct":1,"scaffold":"show-interactive","question":"end","scenario":"axis","graph":"triangular","condition":4,"session":"golf","experiment":"experiment","subject":"MFPR7","internal_node_id":"0.0-8.0-1.0","time_elapsed":736766,"trial_index":22,"trial_type":"html","url":"../views/src/external/stimulus.html","rt":8267},{"block":"triangular_scaffolded","helps":0,"clicked":[["answer","clicked"],["M ","false"],["B ","false"],["J ","false"],["N ","false"],["D ","false"],["O ","false"],["K ","false"],["C ","false"],["F ","false"],["I ","false"],["H ","false"],["G ","false"],["L ","false"],["E ","false"],["A ","false"]],"answer":["A","C","E","F","G","H","I","K","L"],"correct":1,"scaffold":"show-interactive","question":"duration","scenario":"axis","graph":"triangular","condition":4,"session":"golf","experiment":"experiment","subject":"MFPR7","internal_node_id":"0.0-8.0-2.0","time_elapsed":779465,"trial_index":23,"trial_type":"html","url":"../views/src/external/stimulus.html","rt":41431},{"block":"triangular_scaffolded","helps":0,"clicked":[["answer","clicked"],["M ","false"],["B ","false"],["J ","false"],["N ","false"],["D ","false"],["O ","false"],["K ","false"],["C ","false"],["F ","false"],["I ","false"],["H ","false"],["G ","false"],["L ","false"],["E ","false"],["A ","false"]],"answer":["8"],"correct":1,"scaffold":"show-interactive","question":"midpoint","scenario":"axis","graph":"triangular","condition":4,"session":"golf","experiment":"experiment","subject":"MFPR7","internal_node_id":"0.0-8.0-3.0","time_elapsed":810467,"trial_index":24,"trial_type":"html","url":"../views/src/external/stimulus.html","rt":29752},{"block":"triangular_scaffolded","helps":0,"clicked":[["answer","clicked"],["M ","false"],["B ","false"],["J ","false"],["N ","false"],["D ","false"],["O ","false"],["K ","false"],["C ","false"],["F ","false"],["I ","false"],["H ","false"],["G ","false"],["L ","false"],["E ","false"],["A ","false"]],"answer":["8"],"correct":0,"scaffold":"show-interactive","question":"start+overlap","scenario":"axis","graph":"triangular","condition":4,"session":"golf","experiment":"experiment","subject":"MFPR7","internal_node_id":"0.0-8.0-4.0","time_elapsed":856405,"trial_index":25,"trial_type":"html","url":"../views/src/external/stimulus.html","rt":44667},{"block":"triangular_testing","helps":0,"answer":["3"],"clicked":[["answer","clicked"],["M ","false"],["B ","false"],["J ","false"],["N ","false"],["D ","false"],["O ","false"],["K ","false"],["C ","false"],["F ","false"],["I ","false"],["H ","false"],["G ","false"],["L ","false"],["E ","false"],["A ","false"]],"correct":0,"scaffold":"none","question":"starts","scenario":"axis","graph":"triangular","condition":4,"session":"golf","experiment":"experiment","subject":"MFPR7","internal_node_id":"0.0-9.0-5.0","time_elapsed":891397,"trial_index":26,"trial_type":"html","url":"../views/src/external/stimulus.html","rt":33735},{"block":"triangular_testing","helps":0,"answer":["D","M","N","O"],"clicked":[["answer","clicked"],["M ","false"],["B ","false"],["J ","false"],["N ","false"],["D ","false"],["O ","false"],["K ","false"],["C ","false"],["F ","false"],["I ","false"],["H ","false"],["G ","false"],["L ","true"],["E ","false"],["A ","false"]],"correct":1,"scaffold":"none","question":"contain+duration","scenario":"axis","graph":"triangular","condition":4,"session":"golf","experiment":"experiment","subject":"MFPR7","internal_node_id":"0.0-9.0-4.0","time_elapsed":941872,"trial_index":27,"trial_type":"html","url":"../views/src/external/stimulus.html","rt":49224},{"block":"triangular_testing","helps":0,"answer":["L","M","O"],"clicked":[["answer","clicked"],["M ","false"],["B ","false"],["J ","false"],["N ","false"],["D ","false"],["O ","false"],["K ","false"],["C ","false"],["F ","false"],["I ","false"],["H ","false"],["G ","false"],["L ","false"],["E ","false"],["A ","false"]],"correct":0,"scaffold":"none","question":"before+overlap","scenario":"axis","graph":"triangular","condition":4,"session":"golf","experiment":"experiment","subject":"MFPR7","internal_node_id":"0.0-9.0-1.0","time_elapsed":1003114,"trial_index":28,"trial_type":"html","url":"../views/src/external/stimulus.html","rt":59988},{"block":"triangular_testing","helps":0,"answer":["9"],"clicked":[["answer","clicked"],["M ","false"],["B ","false"],["J ","false"],["N ","false"],["D ","false"],["O ","false"],["K ","false"],["C ","false"],["F ","false"],["I ","false"],["H ","false"],["G ","false"],["L ","false"],["E ","false"],["A ","false"]],"correct":1,"scaffold":"none","question":"start+duration","scenario":"axis","graph":"triangular","condition":4,"session":"golf","experiment":"experiment","subject":"MFPR7","internal_node_id":"0.0-9.0-0.0","time_elapsed":1024075,"trial_index":29,"trial_type":"html","url":"../views/src/external/stimulus.html","rt":19616},{"block":"triangular_testing","helps":0,"answer":["G"],"clicked":[["answer","clicked"],["M ","false"],["B ","false"],["J ","false"],["N ","false"],["D ","false"],["O ","false"],["K ","false"],["C ","false"],["F ","false"],["I ","false"],["H ","false"],["G ","false"],["L ","false"],["E ","false"],["A ","false"]],"correct":1,"scaffold":"none","question":"starts+finishes","scenario":"axis","graph":"triangular","condition":4,"session":"golf","experiment":"experiment","subject":"MFPR7","internal_node_id":"0.0-9.0-9.0","time_elapsed":1052808,"trial_index":30,"trial_type":"html","url":"../views/src/external/stimulus.html","rt":27483},{"block":"triangular_testing","helps":0,"answer":["A","B","C","E","F","J"],"clicked":[["answer","clicked"],["M ","false"],["B ","false"],["J ","false"],["N ","false"],["D ","false"],["O ","false"],["K ","false"],["C ","false"],["F ","false"],["I ","false"],["H ","false"],["G ","false"],["L ","false"],["E ","false"],["A ","false"]],"correct":0,"scaffold":"none","question":"overlap+overlap","scenario":"axis","graph":"triangular","condition":4,"session":"golf","experiment":"experiment","subject":"MFPR7","internal_node_id":"0.0-9.0-2.0","time_elapsed":1131314,"trial_index":31,"trial_type":"html","url":"../views/src/external/stimulus.html","rt":77255},{"block":"triangular_testing","helps":0,"answer":["A"],"clicked":[["answer","clicked"],["M ","false"],["B ","false"],["J ","false"],["N ","false"],["D ","false"],["O ","false"],["K ","false"],["C ","false"],["F ","false"],["I ","false"],["H ","false"],["G ","false"],["L ","false"],["E ","false"],["A ","false"]],"correct":1,"scaffold":"none","question":"during+overlap","scenario":"axis","graph":"triangular","condition":4,"session":"golf","experiment":"experiment","subject":"MFPR7","internal_node_id":"0.0-9.0-3.0","time_elapsed":1153574,"trial_index":32,"trial_type":"html","url":"../views/src/external/stimulus.html","rt":20911},{"block":"triangular_testing","helps":0,"answer":["G","O"],"clicked":[["answer","clicked"],["M ","false"],["B ","false"],["J ","false"],["N ","false"],["D ","false"],["O ","false"],["K ","false"],["C ","false"],["F ","false"],["I ","false"],["H ","false"],["G ","false"],["L ","false"],["E ","false"],["A ","false"]],"correct":1,"scaffold":"none","question":"finishes","scenario":"axis","graph":"triangular","condition":4,"session":"golf","experiment":"experiment","subject":"MFPR7","internal_node_id":"0.0-9.0-6.0","time_elapsed":1167294,"trial_index":33,"trial_type":"html","url":"../views/src/external/stimulus.html","rt":12460},{"block":"triangular_testing","helps":0,"answer":["G"],"clicked":[["answer","clicked"],["M ","false"],["B ","false"],["J ","false"],["N ","false"],["D ","false"],["O ","false"],["K ","false"],["C ","false"],["F ","false"],["I ","false"],["H ","false"],["G ","false"],["L ","false"],["E ","false"],["A ","false"]],"correct":1,"scaffold":"none","question":"meets","scenario":"axis","graph":"triangular","condition":4,"session":"golf","experiment":"experiment","subject":"MFPR7","internal_node_id":"0.0-9.0-8.0","time_elapsed":1227761,"trial_index":34,"trial_type":"html","url":"../views/src/external/stimulus.html","rt":59208},{"block":"triangular_testing","helps":0,"answer":["F","M","O"],"clicked":[["answer","clicked"],["M ","false"],["B ","false"],["J ","false"],["N ","false"],["D ","false"],["O ","false"],["K ","false"],["C ","false"],["F ","false"],["I ","false"],["H ","false"],["G ","false"],["L ","false"],["E ","false"],["A ","false"]],"correct":1,"scaffold":"none","question":"during","scenario":"axis","graph":"triangular","condition":4,"session":"golf","experiment":"experiment","subject":"MFPR7","internal_node_id":"0.0-9.0-7.0","time_elapsed":1247960,"trial_index":35,"trial_type":"html","url":"../views/src/external/stimulus.html","rt":18843},{"condition":4,"session":"golf","experiment":"experiment","subject":"MFPR7","internal_node_id":"0.0-10.0","time_elapsed":1262423,"trial_index":36,"trial_type":"single-stim","block":"scenario-draw","key_press":13,"stimulus":"img/jones.png","rt":13457},{"condition":4,"session":"golf","experiment":"experiment","subject":"MFPR7","internal_node_id":"0.0-11.0","time_elapsed":1436461,"trial_index":37,"trial_type":"html","block":"instructions_drawing","url":"../views/src/external/instructions_draw.html","rt":172887},{"block":"drawingTest","clicked":[["answer","clicked"]],"answer":["C1"],"correct":1,"scaffold":"none","question":"duration","scenario":"jones","graph":"none","condition":4,"session":"golf","experiment":"experiment","subject":"MFPR7","internal_node_id":"0.0-12.0","time_elapsed":1681273,"trial_index":38,"trial_type":"html","url":"../views/src/external/stimulus.html","rt":243454},{"block":"drawingTest","clicked":[["answer","clicked"]],"answer":["Chris","3-4pm"],"correct":1,"scaffold":"none","question":"overlap","scenario":"jones","graph":"none","condition":4,"session":"golf","experiment":"experiment","subject":"MFPR7","internal_node_id":"0.0-13.0","time_elapsed":1749693,"trial_index":39,"trial_type":"html","url":"../views/src/external/stimulus.html","rt":67078},{"condition":4,"session":"golf","experiment":"experiment","subject":"MFPR7","internal_node_id":"0.0-14.0","time_elapsed":1757029,"trial_index":40,"trial_type":"survey-text","block":"demo-1","responses":"{\"Q0\":\"21\",\"Q1\":\"USA\"}","rt":6329},{"condition":4,"session":"golf","experiment":"experiment","subject":"MFPR7","internal_node_id":"0.0-15.0","time_elapsed":1772871,"trial_index":41,"trial_type":"survey-multi-choice","block":"demo-2","responses":"{\"Q0\":\"English\",\"Q1\":\"Fourth\",\"Q2\":\"Biomedical \u0026 Health Sciences\",\"Q3\":\"Female\",\"Q4\":\"the first one (linear\"}","rt":14827},{"condition":4,"session":"golf","experiment":"experiment","subject":"MFPR7","internal_node_id":"0.0-16.0","time_elapsed":1797861,"trial_index":42,"trial_type":"html","block":"debrief","url":"../views/src/external/debrief.html","rt":23762}],"__v":0}
{"_id":{"$oid":"58c2e5ed039350000489262c"},"data":[{"condition":4,"session":"golf","experiment":"experiment","subject":"YQDA2","internal_node_id":"0.0-0.0","time_elapsed":84886,"trial_index":0,"trial_type":"single-stim","block":"phone","key_press":13,"stimulus":"img/phone.png","rt":84878},{"condition":4,"session":"golf","experiment":"experiment","subject":"YQDA2","internal_node_id":"0.0-1.0","time_elapsed":94569,"trial_index":1,"trial_type":"html","block":"consent","url":"../views/src/external/consent.html","rt":8403},{"condition":4,"session":"golf","experiment":"experiment","subject":"YQDA2","internal_node_id":"0.0-2.0","time_elapsed":108885,"trial_index":2,"trial_type":"survey-text","block":"codes","responses":"{\"Q0\":\"GOLF\",\"Q1\":\"4\"}","rt":13302},{"condition":4,"session":"golf","experiment":"experiment","subject":"YQDA2","internal_node_id":"0.0-3.0","time_elapsed":128636,"trial_index":3,"trial_type":"html","block":"instructions_lab","url":"../views/src/external/instructions_lab.html","rt":18593},{"condition":4,"session":"golf","experiment":"experiment","subject":"YQDA2","internal_node_id":"0.0-4.0","time_elapsed":144721,"trial_index":4,"trial_type":"single-stim","block":"scenario-one","key_press":13,"stimulus":"img/longmire.png","rt":15082},{"block":"linear_scaffolded","helps":0,"clicked":[["answer","clicked"],["A ","false"],["M ","false"],["D ","false"],["N ","false"],["B ","false"],["F ","false"],["H ","false"],["G ","false"],["O ","false"],["C ","false"],["J ","false"],["I ","false"],["E ","false"],["L ","false"],["K ","false"]],"answer":["C","D","L"],"correct":1,"scaffold":"show-interactive","question":"start","scenario":"longmire","graph":"linear","condition":4,"session":"golf","experiment":"experiment","subject":"YQDA2","internal_node_id":"0.0-5.0-0.0","time_elapsed":190683,"trial_index":5,"trial_type":"html","url":"../views/src/external/stimulus.html","rt":44465},{"block":"linear_scaffolded","helps":0,"clicked":[["answer","clicked"],["A ","false"],["M ","false"],["D ","false"],["N ","false"],["B ","false"],["F ","false"],["H ","false"],["G ","false"],["O ","false"],["C ","false"],["J ","false"],["I ","false"],["E ","false"],["L ","false"],["K ","false"]],"answer":["H","J","K","L","M","N","O"],"correct":1,"scaffold":"show-interactive","question":"end","scenario":"longmire","graph":"linear","condition":4,"session":"golf","experiment":"experiment","subject":"YQDA2","internal_node_id":"0.0-5.0-1.0","time_elapsed":229244,"trial_index":6,"trial_type":"html","url":"../views/src/external/stimulus.html","rt":37280},{"block":"linear_scaffolded","helps":0,"clicked":[["answer","clicked"],["A ","false"],["M ","false"],["D ","false"],["N ","false"],["B ","false"],["F ","false"],["H ","false"],["G ","false"],["O ","false"],["C ","false"],["J ","false"],["I ","false"],["E ","false"],["L ","false"],["K ","false"]],"answer":["G","O"],"correct":1,"scaffold":"show-interactive","question":"duration","scenario":"longmire","graph":"linear","condition":4,"session":"golf","experiment":"experiment","subject":"YQDA2","internal_node_id":"0.0-5.0-2.0","time_elapsed":249156,"trial_index":7,"trial_type":"html","url":"../views/src/external/stimulus.html","rt":18652},{"block":"linear_scaffolded","helps":0,"clicked":[["answer","clicked"],["A ","false"],["M ","false"],["D ","false"],["N ","false"],["B ","false"],["F ","false"],["H ","false"],["G ","false"],["O ","false"],["C ","false"],["J ","true"],["I ","false"],["E ","false"],["L ","false"],["K ","false"]],"answer":["1"],"correct":1,"scaffold":"show-interactive","question":"midpoint","scenario":"longmire","graph":"linear","condition":4,"session":"golf","experiment":"experiment","subject":"YQDA2","internal_node_id":"0.0-5.0-3.0","time_elapsed":272149,"trial_index":8,"trial_type":"html","url":"../views/src/external/stimulus.html","rt":21719},{"block":"linear_scaffolded","helps":0,"clicked":[["answer","clicked"],["A ","false"],["M ","false"],["D ","false"],["N ","false"],["B ","false"],["F ","true"],["H ","false"],["G ","false"],["O ","false"],["C ","false"],["J ","false"],["I ","false"],["E ","false"],["L ","false"],["K ","false"]],"answer":["A"],"correct":1,"scaffold":"show-interactive","question":"start+overlap","scenario":"longmire","graph":"linear","condition":4,"session":"golf","experiment":"experiment","subject":"YQDA2","internal_node_id":"0.0-5.0-4.0","time_elapsed":289403,"trial_index":9,"trial_type":"html","url":"../views/src/external/stimulus.html","rt":15977},{"block":"linear_testing","helps":0,"clicked":[["answer","clicked"],["A ","false"],["M ","false"],["D ","true"],["N ","false"],["B ","false"],["F ","false"],["H ","true"],["G ","false"],["O ","false"],["C ","false"],["J ","false"],["I ","false"],["E ","false"],["L ","false"],["K ","false"]],"answer":["A","M","N"],"correct":1,"scaffold":"none","question":"overlap+overlap","scenario":"longmire","graph":"linear","condition":4,"session":"golf","experiment":"experiment","subject":"YQDA2","internal_node_id":"0.0-6.0-2.0","time_elapsed":320590,"trial_index":10,"trial_type":"html","url":"../views/src/external/stimulus.html","rt":29927},{"block":"linear_testing","helps":0,"clicked":[["answer","clicked"],["A ","false"],["M ","false"],["D ","false"],["N ","false"],["B ","false"],["F ","false"],["H ","false"],["G ","false"],["O ","false"],["C ","false"],["J ","false"],["I ","false"],["E ","true"],["L ","false"],["K ","false"]],"answer":["B","C","D","F","G"],"correct":1,"scaffold":"none","question":"during","scenario":"longmire","graph":"linear","condition":4,"session":"golf","experiment":"experiment","subject":"YQDA2","internal_node_id":"0.0-6.0-7.0","time_elapsed":395015,"trial_index":11,"trial_type":"html","url":"../views/src/external/stimulus.html","rt":73162},{"block":"linear_testing","helps":0,"clicked":[["answer","clicked"],["A ","false"],["M ","false"],["D ","false"],["N ","false"],["B ","false"],["F ","false"],["H ","false"],["G ","false"],["O ","false"],["C ","false"],["J ","true"],["I ","false"],["E ","false"],["L ","false"],["K ","false"]],"answer":["G","O"],"correct":1,"scaffold":"none","question":"contain+duration","scenario":"longmire","graph":"linear","condition":4,"session":"golf","experiment":"experiment","subject":"YQDA2","internal_node_id":"0.0-6.0-4.0","time_elapsed":449685,"trial_index":12,"trial_type":"html","url":"../views/src/external/stimulus.html","rt":53330},{"block":"linear_testing","helps":0,"clicked":[["answer","clicked"],["A ","false"],["M ","false"],["D ","false"],["N ","false"],["B ","false"],["F ","false"],["H ","true"],["G ","false"],["O ","true"],["C ","false"],["J ","true"],["I ","false"],["E ","false"],["L ","false"],["K ","false"]],"answer":["4"],"correct":0,"scaffold":"none","question":"finishes","scenario":"longmire","graph":"linear","condition":4,"session":"golf","experiment":"experiment","subject":"YQDA2","internal_node_id":"0.0-6.0-6.0","time_elapsed":484311,"trial_index":13,"trial_type":"html","url":"../views/src/external/stimulus.html","rt":33376},{"block":"linear_testing","helps":0,"clicked":[["answer","clicked"],["A ","false"],["M ","false"],["D ","true"],["N ","false"],["B ","false"],["F ","false"],["H ","false"],["G ","false"],["O ","false"],["C ","true"],["J ","false"],["I ","false"],["E ","false"],["L ","true"],["K ","false"]],"answer":["6","8"],"correct":1,"scaffold":"none","question":"starts","scenario":"longmire","graph":"linear","condition":4,"session":"golf","experiment":"experiment","subject":"YQDA2","internal_node_id":"0.0-6.0-5.0","time_elapsed":524857,"trial_index":14,"trial_type":"html","url":"../views/src/external/stimulus.html","rt":39296},{"block":"linear_testing","helps":0,"clicked":[["answer","clicked"],["A ","true"],["M ","false"],["D ","true"],["N ","false"],["B ","true"],["F ","true"],["H ","false"],["G ","false"],["O ","false"],["C ","false"],["J ","false"],["I ","false"],["E ","false"],["L ","false"],["K ","false"]],"answer":["A","B","D","F"],"correct":1,"scaffold":"none","question":"start+duration","scenario":"longmire","graph":"linear","condition":4,"session":"golf","experiment":"experiment","subject":"YQDA2","internal_node_id":"0.0-6.0-0.0","time_elapsed":569001,"trial_index":15,"trial_type":"html","url":"../views/src/external/stimulus.html","rt":42890},{"block":"linear_testing","helps":0,"clicked":[["answer","clicked"],["A ","false"],["M ","false"],["D ","true"],["N ","false"],["B ","false"],["F ","false"],["H ","true"],["G ","false"],["O ","false"],["C ","false"],["J ","false"],["I ","false"],["E ","false"],["L ","false"],["K ","false"]],"answer":["B","F"],"correct":0,"scaffold":"none","question":"during+overlap","scenario":"longmire","graph":"linear","condition":4,"session":"golf","experiment":"experiment","subject":"YQDA2","internal_node_id":"0.0-6.0-3.0","time_elapsed":599587,"trial_index":16,"trial_type":"html","url":"../views/src/external/stimulus.html","rt":29330},{"block":"linear_testing","helps":0,"clicked":[["answer","clicked"],["A ","false"],["M ","false"],["D ","false"],["N ","false"],["B ","false"],["F ","true"],["H ","false"],["G ","false"],["O ","false"],["C ","false"],["J ","false"],["I ","false"],["E ","false"],["L ","false"],["K ","false"]],"answer":["O"],"correct":1,"scaffold":"none","question":"meets","scenario":"longmire","graph":"linear","condition":4,"session":"golf","experiment":"experiment","subject":"YQDA2","internal_node_id":"0.0-6.0-8.0","time_elapsed":619494,"trial_index":17,"trial_type":"html","url":"../views/src/external/stimulus.html","rt":18483},{"block":"linear_testing","helps":0,"clicked":[["answer","clicked"],["A ","true"],["M ","false"],["D ","true"],["N ","false"],["B ","true"],["F ","true"],["H ","false"],["G ","false"],["O ","false"],["C ","true"],["J ","false"],["I ","true"],["E ","false"],["L ","false"],["K ","false"]],"answer":["A","B","C","D","F","I"],"correct":1,"scaffold":"none","question":"before+overlap","scenario":"longmire","graph":"linear","condition":4,"session":"golf","experiment":"experiment","subject":"YQDA2","internal_node_id":"0.0-6.0-1.0","time_elapsed":705797,"trial_index":18,"trial_type":"html","url":"../views/src/external/stimulus.html","rt":85045},{"block":"linear_testing","helps":0,"clicked":[["answer","clicked"],["A ","false"],["M ","false"],["D ","true"],["N ","false"],["B ","false"],["F ","false"],["H ","false"],["G ","false"],["O ","false"],["C ","false"],["J ","false"],["I ","false"],["E ","false"],["L ","false"],["K ","false"]],"answer":["C"],"correct":1,"scaffold":"none","question":"starts+finishes","scenario":"longmire","graph":"linear","condition":4,"session":"golf","experiment":"experiment","subject":"YQDA2","internal_node_id":"0.0-6.0-9.0","time_elapsed":725976,"trial_index":19,"trial_type":"html","url":"../views/src/external/stimulus.html","rt":18837},{"condition":4,"session":"golf","experiment":"experiment","subject":"YQDA2","internal_node_id":"0.0-7.0","time_elapsed":741708,"trial_index":20,"trial_type":"single-stim","block":"scenario-two","key_press":13,"stimulus":"img/axis.png","rt":14727},{"block":"triangular_scaffolded","helps":0,"clicked":[["answer","clicked"],["M ","false"],["B ","false"],["J ","false"],["N ","false"],["D ","false"],["O ","false"],["K ","false"],["C ","false"],["F ","false"],["I ","false"],["H ","false"],["G ","false"],["L ","false"],["E ","false"],["A ","false"]],"answer":["G"],"correct":0,"scaffold":"show-interactive","question":"start","scenario":"axis","graph":"triangular","condition":4,"session":"golf","experiment":"experiment","subject":"YQDA2","internal_node_id":"0.0-8.0-0.0","time_elapsed":768826,"trial_index":21,"trial_type":"html","url":"../views/src/external/stimulus.html","rt":25864},{"block":"triangular_scaffolded","helps":0,"clicked":[["answer","clicked"],["M ","false"],["B ","false"],["J ","false"],["N ","false"],["D ","false"],["O ","false"],["K ","false"],["C ","false"],["F ","false"],["I ","false"],["H ","false"],["G ","false"],["L ","false"],["E ","false"],["A ","false"]],"answer":["4"],"correct":1,"scaffold":"show-interactive","question":"end","scenario":"axis","graph":"triangular","condition":4,"session":"golf","experiment":"experiment","subject":"YQDA2","internal_node_id":"0.0-8.0-1.0","time_elapsed":784043,"trial_index":22,"trial_type":"html","url":"../views/src/external/stimulus.html","rt":13966},{"block":"triangular_scaffolded","helps":0,"clicked":[["answer","clicked"],["M ","false"],["B ","false"],["J ","false"],["N ","false"],["D ","false"],["O ","false"],["K ","false"],["C ","false"],["F ","false"],["I ","false"],["H ","false"],["G ","false"],["L ","false"],["E ","false"],["A ","false"]],"answer":["A","E","G","L"],"correct":0,"scaffold":"show-interactive","question":"duration","scenario":"axis","graph":"triangular","condition":4,"session":"golf","experiment":"experiment","subject":"YQDA2","internal_node_id":"0.0-8.0-2.0","time_elapsed":853566,"trial_index":23,"trial_type":"html","url":"../views/src/external/stimulus.html","rt":68270},{"block":"triangular_scaffolded","helps":0,"clicked":[["answer","clicked"],["M ","false"],["B ","false"],["J ","false"],["N ","false"],["D ","false"],["O ","false"],["K ","false"],["C ","false"],["F ","false"],["I ","false"],["H ","false"],["G ","false"],["L ","false"],["E ","false"],["A ","false"]],"answer":["8"],"correct":1,"scaffold":"show-interactive","question":"midpoint","scenario":"axis","graph":"triangular","condition":4,"session":"golf","experiment":"experiment","subject":"YQDA2","internal_node_id":"0.0-8.0-3.0","time_elapsed":884157,"trial_index":24,"trial_type":"html","url":"../views/src/external/stimulus.html","rt":29244},{"block":"triangular_scaffolded","helps":0,"clicked":[["answer","clicked"],["M ","false"],["B ","false"],["J ","false"],["N ","false"],["D ","false"],["O ","false"],["K ","false"],["C ","false"],["F ","false"],["I ","false"],["H ","false"],["G ","false"],["L ","false"],["E ","false"],["A ","false"]],"answer":["1"],"correct":0,"scaffold":"show-interactive","question":"start+overlap","scenario":"axis","graph":"triangular","condition":4,"session":"golf","experiment":"experiment","subject":"YQDA2","internal_node_id":"0.0-8.0-4.0","time_elapsed":907616,"trial_index":25,"trial_type":"html","url":"../views/src/external/stimulus.html","rt":22204},{"block":"triangular_testing","helps":0,"answer":["F"],"clicked":[["answer","clicked"],["M ","false"],["B ","false"],["J ","false"],["N ","true"],["D ","false"],["O ","false"],["K ","true"],["C ","false"],["F ","false"],["I ","false"],["H ","false"],["G ","false"],["L ","false"],["E ","false"],["A ","false"]],"correct":0,"scaffold":"none","question":"meets","scenario":"axis","graph":"triangular","condition":4,"session":"golf","experiment":"experiment","subject":"YQDA2","internal_node_id":"0.0-9.0-8.0","time_elapsed":952432,"trial_index":26,"trial_type":"html","url":"../views/src/external/stimulus.html","rt":43543},{"block":"triangular_testing","helps":0,"answer":["B","C","J"],"clicked":[["answer","clicked"],["M ","false"],["B ","false"],["J ","false"],["N ","false"],["D ","false"],["O ","false"],["K ","false"],["C ","false"],["F ","false"],["I ","false"],["H ","false"],["G ","false"],["L ","false"],["E ","false"],["A ","false"]],"correct":0,"scaffold":"none","question":"overlap+overlap","scenario":"axis","graph":"triangular","condition":4,"session":"golf","experiment":"experiment","subject":"YQDA2","internal_node_id":"0.0-9.0-2.0","time_elapsed":968965,"trial_index":27,"trial_type":"html","url":"../views/src/external/stimulus.html","rt":15268},{"block":"triangular_testing","helps":0,"answer":["F","M","O"],"clicked":[["answer","clicked"],["M ","false"],["B ","false"],["J ","false"],["N ","false"],["D ","false"],["O ","false"],["K ","false"],["C ","false"],["F ","false"],["I ","false"],["H ","false"],["G ","true"],["L ","false"],["E ","false"],["A ","false"]],"correct":1,"scaffold":"none","question":"during","scenario":"axis","graph":"triangular","condition":4,"session":"golf","experiment":"experiment","subject":"YQDA2","internal_node_id":"0.0-9.0-7.0","time_elapsed":986140,"trial_index":28,"trial_type":"html","url":"../views/src/external/stimulus.html","rt":15925},{"block":"triangular_testing","helps":0,"answer":["9"],"clicked":[["answer","clicked"],["M ","false"],["B ","false"],["J ","false"],["N ","false"],["D ","false"],["O ","false"],["K ","false"],["C ","false"],["F ","false"],["I ","false"],["H ","false"],["G ","false"],["L ","false"],["E ","false"],["A ","false"]],"correct":1,"scaffold":"none","question":"start+duration","scenario":"axis","graph":"triangular","condition":4,"session":"golf","experiment":"experiment","subject":"YQDA2","internal_node_id":"0.0-9.0-0.0","time_elapsed":1011542,"trial_index":29,"trial_type":"html","url":"../views/src/external/stimulus.html","rt":24155},{"block":"triangular_testing","helps":0,"answer":["F","G","M","O"],"clicked":[["answer","clicked"],["M ","false"],["B ","false"],["J ","false"],["N ","true"],["D ","false"],["O ","false"],["K ","true"],["C ","false"],["F ","false"],["I ","false"],["H ","false"],["G ","false"],["L ","false"],["E ","false"],["A ","false"]],"correct":1,"scaffold":"none","question":"before+overlap","scenario":"axis","graph":"triangular","condition":4,"session":"golf","experiment":"experiment","subject":"YQDA2","internal_node_id":"0.0-9.0-1.0","time_elapsed":1057137,"trial_index":30,"trial_type":"html","url":"../views/src/external/stimulus.html","rt":44337},{"block":"triangular_testing","helps":0,"answer":["G"],"clicked":[["answer","clicked"],["M ","false"],["B ","false"],["J ","false"],["N ","false"],["D ","false"],["O ","false"],["K ","false"],["C ","false"],["F ","false"],["I ","false"],["H ","false"],["G ","false"],["L ","false"],["E ","false"],["A ","false"]],"correct":1,"scaffold":"none","question":"starts+finishes","scenario":"axis","graph":"triangular","condition":4,"session":"golf","experiment":"experiment","subject":"YQDA2","internal_node_id":"0.0-9.0-9.0","time_elapsed":1068248,"trial_index":31,"trial_type":"html","url":"../views/src/external/stimulus.html","rt":9861},{"block":"triangular_testing","helps":0,"answer":["D","H","M","N","O"],"clicked":[["answer","clicked"],["M ","false"],["B ","false"],["J ","false"],["N ","false"],["D ","false"],["O ","false"],["K ","false"],["C ","false"],["F ","false"],["I ","false"],["H ","false"],["G ","false"],["L ","true"],["E ","false"],["A ","false"]],"correct":0,"scaffold":"none","question":"contain+duration","scenario":"axis","graph":"triangular","condition":4,"session":"golf","experiment":"experiment","subject":"YQDA2","internal_node_id":"0.0-9.0-4.0","time_elapsed":1094695,"trial_index":32,"trial_type":"html","url":"../views/src/external/stimulus.html","rt":25194},{"block":"triangular_testing","helps":0,"answer":["A"],"clicked":[["answer","clicked"],["M ","false"],["B ","false"],["J ","false"],["N ","false"],["D ","false"],["O ","false"],["K ","false"],["C ","false"],["F ","true"],["I ","false"],["H ","false"],["G ","false"],["L ","false"],["E ","false"],["A ","false"]],"correct":1,"scaffold":"none","question":"during+overlap","scenario":"axis","graph":"triangular","condition":4,"session":"golf","experiment":"experiment","subject":"YQDA2","internal_node_id":"0.0-9.0-3.0","time_elapsed":1134067,"trial_index":33,"trial_type":"html","url":"../views/src/external/stimulus.html","rt":38121},{"block":"triangular_testing","helps":0,"answer":["O"],"clicked":[["answer","clicked"],["M ","false"],["B ","false"],["J ","false"],["N ","false"],["D ","false"],["O ","false"],["K ","false"],["C ","false"],["F ","false"],["I ","false"],["H ","false"],["G ","false"],["L ","false"],["E ","false"],["A ","false"]],"correct":0,"scaffold":"none","question":"finishes","scenario":"axis","graph":"triangular","condition":4,"session":"golf","experiment":"experiment","subject":"YQDA2","internal_node_id":"0.0-9.0-6.0","time_elapsed":1156931,"trial_index":34,"trial_type":"html","url":"../views/src/external/stimulus.html","rt":21618},{"block":"triangular_testing","helps":0,"answer":["6"],"clicked":[["answer","clicked"],["M ","false"],["B ","false"],["J ","false"],["N ","false"],["D ","false"],["O ","false"],["K ","false"],["C ","false"],["F ","false"],["I ","false"],["H ","false"],["G ","false"],["L ","false"],["E ","false"],["A ","false"]],"correct":1,"scaffold":"none","question":"starts","scenario":"axis","graph":"triangular","condition":4,"session":"golf","experiment":"experiment","subject":"YQDA2","internal_node_id":"0.0-9.0-5.0","time_elapsed":1189860,"trial_index":35,"trial_type":"html","url":"../views/src/external/stimulus.html","rt":31667},{"condition":4,"session":"golf","experiment":"experiment","subject":"YQDA2","internal_node_id":"0.0-10.0","time_elapsed":1211802,"trial_index":36,"trial_type":"single-stim","block":"scenario-draw","key_press":13,"stimulus":"img/jones.png","rt":20936},{"condition":4,"session":"golf","experiment":"experiment","subject":"YQDA2","internal_node_id":"0.0-11.0","time_elapsed":1746987,"trial_index":37,"trial_type":"html","block":"instructions_drawing","url":"../views/src/external/instructions_draw.html","rt":533941},{"block":"drawingTest","clicked":[["answer","clicked"]],"answer":["I4"],"correct":0,"scaffold":"none","question":"duration","scenario":"jones","graph":"none","condition":4,"session":"golf","experiment":"experiment","subject":"YQDA2","internal_node_id":"0.0-12.0","time_elapsed":1805874,"trial_index":38,"trial_type":"html","url":"../views/src/external/stimulus.html","rt":57468},{"block":"drawingTest","clicked":[["answer","clicked"]],"answer":["Chris","3-4pm"],"correct":1,"scaffold":"none","question":"overlap","scenario":"jones","graph":"none","condition":4,"session":"golf","experiment":"experiment","subject":"YQDA2","internal_node_id":"0.0-13.0","time_elapsed":1875455,"trial_index":39,"trial_type":"html","url":"../views/src/external/stimulus.html","rt":68329},{"condition":4,"session":"golf","experiment":"experiment","subject":"YQDA2","internal_node_id":"0.0-14.0","time_elapsed":1885446,"trial_index":40,"trial_type":"survey-text","block":"demo-1","responses":"{\"Q0\":\"18\",\"Q1\":\"United States\"}","rt":8985},{"condition":4,"session":"golf","experiment":"experiment","subject":"YQDA2","internal_node_id":"0.0-15.0","time_elapsed":1901282,"trial_index":41,"trial_type":"survey-multi-choice","block":"demo-2","responses":"{\"Q0\":\"English\",\"Q1\":\"First\",\"Q2\":\"Biomedical \u0026 Health Sciences\",\"Q3\":\"Female\",\"Q4\":\"the second one (triangular)\"}","rt":14818},{"condition":4,"session":"golf","experiment":"experiment","subject":"YQDA2","internal_node_id":"0.0-16.0","time_elapsed":1930090,"trial_index":42,"trial_type":"html","block":"debrief","url":"../views/src/external/debrief.html","rt":27455}],"__v":0}
